,ax,ay,az
501,-13.03191,-6.524629,8.530712
502,-5.9724855,-4.3328037,6.398707
503,-0.034097724,-2.5911279,5.7110696
504,8.141878,-1.2137593,4.3265224
505,12.561421,-0.552742,6.873084
506,14.542679,1.430908,12.05205
507,13.859827,-3.4752758,16.00948
508,12.841681,-6.4002023,15.3290205
509,10.865508,-6.023931,9.000303
510,7.4590263,-3.024827,0.78843504
511,4.380959,-1.0797613,-3.2455647
512,2.8429725,0.75523466,-0.99631155
513,1.2978072,0.4941179,4.846363
514,-4.417749,-0.8665009,14.644074
515,-10.593325,-2.0808585,10.8664055
516,-12.114562,-4.8215375,0.8913264
517,-7.778767,-10.117751,-7.3417783
518,-3.1265218,-15.055042,-10.230812
519,-2.0892332,-20.195723,-2.1077776
520,-4.130311,-32.070103,2.9156544
521,-7.7739816,-40.758743,-2.630011
522,-9.745368,-35.603706,-2.4454648
523,-9.783653,-28.36452,0.5703891
524,-10.638788,-23.149363,3.1217363
525,-13.422539,-23.93032,3.4139597
526,-16.630117,-24.711277,1.9477576
527,-15.607185,-24.081367,3.667898
528,-9.27817,-21.07,5.0069814
529,0.054735817,-18.434904,4.961518
530,9.679865,-18.188442,6.2237315
531,11.392528,-18.013468,6.465706
532,15.649359,-17.862421,2.9922247
533,14.1879425,-16.422838,-0.17467605
534,5.660222,-12.115758,-3.4851463
535,4.941478,-8.663813,-3.4851463
536,2.0620148,-4.0740795,-6.3717875
537,-1.4904294,0.8344969,-10.312168
538,-4.039384,3.8718863,-11.752049
539,-6.604789,8.574081,-10.9375925
540,-6.6071815,11.420045,-11.886047
541,-4.3579283,15.492331,-14.966806
542,-2.7433712,15.113965,-25.614868
543,-1.3707882,13.084851,-23.006092
544,0.11934203,9.069994,-14.147564
545,1.3890336,4.4922256,-5.823233
546,1.0247263,1.2750753,-1.4703895
547,-0.44835514,-3.8727834,1.9453648
548,-2.4224339,-6.9344,7.481459
549,-5.898308,-10.956436,19.665113
550,-5.1029935,-12.314662,40.644783
551,2.225026,-15.493228,38.35934
552,6.3068824,-20.454447,27.411877
553,-3.394817,-21.620947,-28.899015
554,-4.386642,-14.834603,-28.216166
555,-3.9987056,-25.111177,30.406494
556,-16.09592,-25.365116,-25.581367
557,-4.400999,-12.043974,-17.640188
558,-2.1708884,-5.6359944,-13.852947
559,1.8894325,-2.4643083,-15.536897
560,0.33260235,-3.295515,-14.056337
561,-5.052445,-7.923533,-10.21167
562,-11.254642,-14.793925,-5.5980086
563,-14.06202,-23.288446,0.17766708
564,-10.758729,-33.22494,6.5497537
565,-4.7988057,-38.557346,7.9223366
566,1.7075781,-36.928432,0.37627137
567,6.1701922,-34.147076,-5.6410794
568,5.9261246,-29.370403,-5.3943195
569,2.088336,-25.861029,6.2380886
570,-4.295715,-22.368404,21.22673
571,-11.082059,-16.21915,18.258732
572,-13.820046,-10.810175,10.612468
573,-14.220246,-7.1808605,9.086445
574,-11.216356,-5.4346986,8.458927
575,-5.8453665,-3.2859437,7.795218
576,1.829612,-2.4284158,7.5460653
577,8.752646,-2.1816561,6.544669
578,14.554643,-2.0521445,8.717651
579,17.740686,-0.49262238,11.668899
580,18.821045,-3.4920256,13.721642
581,16.236198,-5.2166524,10.250553
582,12.379567,-4.0884366,4.5613184
583,7.8233337,-1.6857436,-2.8839495
584,5.348557,0.63798636,-3.7749767
585,0.9457632,-0.37537405,5.974579
586,-3.6990047,-1.2472588,15.484853
587,-11.561222,-2.2151556,13.000804
588,-12.612867,-2.5600212,3.2557342
589,-11.623435,-3.8368912,-5.552545
590,-8.588439,-8.603992,-6.136992
591,-3.370889,-14.166408,-11.416755
592,-1.1096715,-16.44916,-9.035598
593,-4.8825545,-24.212973,3.5671003
594,-10.4210415,-37.306797,1.5957136
595,-15.911373,-45.6742,-2.3282163
596,-11.359925,-33.984364,-0.39481574
597,-8.468498,-25.650162,3.4881372
598,-8.902198,-23.801107,3.9840498
599,-12.004193,-24.352055,5.4981084
600,-10.928619,-22.85714,7.112665
601,-3.0619156,-21.321545,7.6348987
602,3.336492,-20.598314,10.521241
603,10.333704,-21.101107,8.576176
604,13.270595,-20.49991,3.9457645
605,14.413167,-18.621843,-1.0728818
606,13.902898,-16.010675,-4.4674
607,4.0528436,-9.092726,-8.589934
608,6.3403816,-7.5547395,-10.4871435
609,-1.4928222,-3.649952,-8.867801
610,-4.4727836,1.3133606,-11.682657
611,-7.974979,5.9967127,-11.435898
612,-10.07827,10.670195,-11.689836
613,-9.029017,15.734304,-13.491034
614,-5.3159547,19.059431,-18.718155
615,-2.1900308,16.579868,-24.48396
616,0.06669993,13.24547,-17.824734
617,2.7999015,7.1105714,-10.7482605
618,3.4657044,2.8992038,-4.194319
619,2.8094728,-0.9502497,-1.2765709
620,0.33499518,-5.0129633,1.3130615
621,-2.053341,-8.649456,8.42782
622,-3.4884362,-11.282159,16.210775
623,-3.330211,-13.0570345,28.990541
624,0.87637126,-15.359229,30.873394
625,6.457929,-15.958034,21.097517
626,6.472286,-16.101902,2.038984
627,-2.4846473,-8.531908,-35.1392
628,-5.675476,-6.469594,-21.992731
629,-6.046663,-8.769096,57.02276
630,-15.885053,-24.799812,-40.438103
631,-9.934701,-23.091934,-37.14199
632,-7.146165,-14.901602,-15.410077
633,0.7851449,-7.3486576,-12.506686
634,3.784548,-6.4360948,-8.56122
635,2.088336,-8.95125,-4.941478
636,-2.0820549,-16.204794,-1.8753748
637,-4.1590247,-28.24458,1.7057835
638,-2.5851457,-35.790344,2.7526433
639,0.09302098,-37.527237,-4.304389
640,1.7482561,-33.483665,-11.754442
641,-0.06520442,-27.281767,-10.324431
642,-4.1015973,-24.656242,7.050153
643,-9.520144,-22.622343,23.629423
644,-16.167704,-17.824137,19.442282
645,-17.660227,-15.926927,11.508281
646,-16.872091,-12.868002,8.616854
647,-12.24856,-10.347761,10.964512
648,-7.153343,-8.515159,10.26491
649,0.15044872,-6.347261,7.4527454
650,6.3858457,-4.36391,4.918148
651,10.865508,-2.507379,5.4020963
652,16.150057,0.30987054,8.405986
653,17.06262,2.43709,8.006085
654,15.529419,0.13968103,5.143372
655,12.999907,-0.49262238,2.566003
656,11.155339,0.25932217,2.9371898
657,8.999406,0.7289136,4.633103
658,4.7545385,-0.08315059,7.3666034
659,-0.19202402,-1.5323038,9.608679
660,-5.447859,-2.7852457,10.940583
661,-9.069695,-3.4342988,8.640781
662,-12.428321,-7.3199434,2.0294127
663,-10.732408,-12.187543,-2.1771696
664,-3.5841491,-18.224335,-12.027523
665,-2.2307088,-22.035503,-5.825626
666,-5.124529,-29.79453,0.54646087
667,-9.937094,-37.048073,-0.9242278
668,-9.922736,-32.556446,0.75972116
669,-10.167104,-24.555445,2.2615166
670,-10.66511,-21.831814,4.281059
671,-12.842877,-23.024937,4.2667017
672,-18.601503,-26.359335,2.513062
673,-16.8024,-24.981966,4.8966126
674,-11.609078,-21.038893,8.403593
675,-2.606681,-17.8361,5.1050873
676,3.4417763,-18.547667,5.2031927
677,11.323136,-17.714066,4.1781673
678,14.441881,-17.536697,4.328915
679,14.405989,-17.37877,-0.47168517
680,12.518351,-15.86232,-0.8285148
681,9.372986,-14.511273,-2.169991
682,2.847758,-8.079366,-4.273282
683,-0.13938192,-4.7685966,-6.8629146
684,-3.7974095,2.5471597,-10.712368
685,-6.710372,6.5404816,-11.057234
686,-8.823235,12.263216,-11.909976
687,-7.5990067,17.811274,-12.132807
688,-2.2331018,18.72623,-26.563322
689,0.6966105,15.487545,-25.257738
690,2.728117,9.659226,-17.324036
691,4.412066,4.983352,-8.786445
692,2.754438,1.3588241,-2.7759733
693,-0.77677006,-2.603092,0.32362926
694,-3.2440693,-5.386842,4.9399824
695,-8.130812,-9.789636,18.97269
696,-8.1738825,-11.46162,46.468315
697,0.7516454,-15.955641,36.371204
698,-1.9217356,-21.309582,13.441382
699,-9.709476,-20.088045,-29.286953
700,-4.81077,-18.434904,-8.491829
701,-7.3378897,-29.452057,11.1682005
702,-0.4244269,-15.174683,-24.611078
703,-1.2125629,-11.131112,-22.70669
704,2.5316064,-6.6514487,-21.489641
705,5.784649,-4.5170507,-18.51925
706,3.0490541,-5.925825,-14.724833
707,-3.330211,-11.914462,-9.306286
708,-9.136993,-21.048464,-0.6008976
709,-11.017453,-28.972895,11.69522
710,-7.4623165,-34.25505,12.641282
711,-4.182953,-34.453655,1.7587247
712,-0.70947194,-31.025936,-12.372389
713,1.1207383,-28.115368,-12.403495
714,-1.7778672,-26.411976,2.8630123
715,-8.243274,-24.790241,23.950659
716,-12.895519,-18.674486,21.811476
717,-14.431113,-13.473985,10.049556
718,-14.862121,-10.779068,8.545069
719,-13.079767,-8.088937,9.572786
720,-8.212168,-5.9545393,8.499605
721,-2.554039,-4.70399,7.795218
722,6.946364,-3.1061828,5.241777
723,11.972189,-2.4236302,5.5052867
724,16.334305,-1.3121641,9.776475
725,19.96362,-0.31076783,13.443775
726,18.847366,-3.7938204,11.906087
727,14.894723,-4.6154556,9.412168
728,13.759329,-4.162614,8.420642
729,6.876972,0.55393845,-2.495714
730,5.5761743,2.4825535,-2.2704897
731,1.3121641,1.6319051,5.157729
732,-4.9088755,0.15882361,14.148162
733,-11.92523,-2.155335,10.145268
734,-13.724334,-3.44387,6.0490556
735,-12.212667,-8.575278,-1.451247
736,-5.1412787,-15.129219,-8.896515
737,0.07148558,-19.37648,-9.483355
738,-0.9059825,-24.02364,0.4339982
739,-6.233602,-38.15236,0.84347
740,-12.612867,-47.482872,0.12233306
741,-12.816257,-37.66841,-0.45732823
742,-11.7311125,-26.076681,1.5885352
743,-11.982657,-22.26312,2.3288147
744,-15.956837,-22.998615,3.3059835
745,-17.971594,-22.873888,5.3973107
746,-18.24946,-21.520449,8.578568
747,-3.0930223,-17.004892,4.9806604
748,8.714361,-16.964214,5.581857
749,14.224134,-16.612171,5.042874
750,18.128622,-17.886349,0.8386843
751,16.612171,-17.730816,-2.0599213
752,10.412667,-15.122041,-2.4382863
753,3.9759738,-10.158729,-2.9006991
754,0.94337034,-3.8081772,-5.9237313
755,0.73489565,-0.20039889,-8.515757
756,-3.2273195,4.901996,-10.913664
757,-6.154639,9.343075,-12.156735
758,-6.7319074,12.708879,-13.309178
759,-6.1977096,15.90928,-22.335205
760,-5.4789658,14.706587,-26.632713
761,-4.453641,14.476577,-17.688044
762,-3.5410783,11.410474,-9.425926
763,-2.038984,5.4242296,-4.6950173
764,-1.3133606,0.80548394,-3.159423
765,-1.8858434,-3.4342988,-0.4764708
766,-3.301497,-6.387939,4.3408794
767,-4.9064827,-10.513165,20.702103
768,-2.8869405,-14.250156,43.102512
769,4.9845486,-15.867106,28.233812
770,9.502497,-17.615662,14.603396
771,3.9376888,-16.046867,-13.354642
772,-4.8394837,-8.848359,-30.211779
773,-2.1107686,-5.563911,1.0926226
774,0.38763726,-13.318151,35.319557
775,-11.709577,-18.928423,-29.51457
776,-10.073484,-17.254045,-19.542183
777,-6.9523463,-12.247364,-13.373785
778,-4.0609193,-9.9909315,-11.538789
779,-2.9805596,-11.239088,-8.453544
780,-3.411567,-13.806886,-3.2910285
781,-4.523332,-16.84936,2.2761726
782,-4.7916274,-22.928925,6.358029
783,-4.362714,-31.49523,5.593821
784,-1.6941184,-36.6386,-2.2633111
785,3.0203404,-34.513775,-12.305389
786,4.3737807,-27.296124,-14.2337055
787,1.4440684,-25.61427,-0.4884349
788,-7.524829,-25.784458,26.68386
789,-14.646467,-21.767208,24.614069
790,-18.014664,-16.851753,10.923834
791,-19.21945,-13.100405,10.34178
792,-14.409279,-10.098609,10.221839
793,-5.8863435,-8.3835535,8.018049
794,2.9602208,-6.7235327,6.3125653
795,11.243874,-3.388835,7.146165
796,15.342779,-1.8005991,8.295917
797,19.35285,1.035494,9.888938
798,20.449959,1.6848463,7.927122
799,19.51317,0.30029923,4.132405
800,16.401604,0.6044868,1.9812572
801,13.399807,1.1673983,0.19202402
802,9.691829,0.48933223,0.99690974
803,4.8768716,-1.189831,3.871587
804,-0.5057829,-3.2117662,9.1821575
805,-7.1509504,-5.2022953,14.713467
806,-8.808877,-5.5686965,14.763716
807,-13.551751,-6.486344,1.2723835
808,-11.278569,-9.490233,-3.5234313
809,-4.8993044,-14.367405,-11.356635
810,-1.9408783,-16.588243,-10.451251
811,-5.205885,-24.059832,0.20398813
812,-9.795618,-35.165222,-1.3770695
813,-13.506288,-40.293938,-2.8815567
814,-11.79841,-33.86442,0.20638095
815,-9.654441,-26.225336,2.9395826
816,-9.208778,-23.391336,4.4129634
817,-10.121341,-22.912174,4.7913284
818,-9.450752,-21.503698,4.4368916
819,-2.2378874,-20.03032,6.774679
820,1.3746766,-19.457836,8.568997
821,6.1677995,-18.803997,8.957232
822,11.315957,-18.502201,4.5038905
823,12.192628,-18.291334,-0.9098708
824,9.58146,-15.898212,-2.4598217
825,5.1738806,-12.058331,-4.043272
826,0.61764735,-6.7235327,-6.163313
827,-1.753939,-3.1253254,-7.3417783
828,-3.5865421,-0.025722843,-8.546864
829,-6.406184,5.51755,-10.631012
830,-7.1485577,8.943174,-10.384252
831,-7.225427,14.400006,-11.989238
832,-4.511069,17.106888,-18.286848
833,-3.2201412,16.32593,-21.245274
834,-0.6472585,12.265609,-15.127126
835,2.114657,8.190931,-10.942378
836,3.0681968,4.156931,-5.092525
837,1.3576277,-0.011365907,-1.2382857
838,-0.7692925,-2.7014968,1.4856437
839,-4.252345,-6.6852474,7.385746
840,-5.124529,-9.399306,20.678175
841,-1.2819548,-11.349157,30.83511
842,5.343771,-12.923037,24.71696
843,4.4312086,-16.001104,14.461921
844,-5.3569317,-14.376976,-24.486353
845,-6.4444695,-9.581161,-16.76591
846,-9.115458,-21.494127,59.123657
847,-12.986446,-27.67449,-38.296528
848,-6.652645,-21.78635,-32.453854
849,-3.8237305,-10.903495,-12.70529
850,0.57457656,-7.4324064,-10.40818
851,3.1806595,-6.4360948,-5.6147585
852,-0.99930257,-8.170293,-5.0829535
853,-4.3674994,-10.985149,-4.2134614
854,-8.193025,-18.784855,-0.24885355
855,-6.1570315,-30.204002,2.661716
856,-2.4320052,-36.623943,0.721436
857,0.21026929,-36.684063,-3.0873394
858,2.1385853,-30.230621,-7.765906
859,1.6453646,-24.411875,-6.580262
860,1.2451651,-23.472692,-4.929514
861,-7.5702925,-21.985254,19.324736
862,-13.37229,-18.367905,20.706888
863,-14.189139,-13.864313,10.562219
864,-14.332708,-10.2927265,6.669395
865,-11.494223,-8.654242,8.8014
866,-5.7257257,-7.7775707,7.9055867
867,1.3313067,-6.378368,5.5340004
868,8.302197,-3.990331,5.2226343
869,13.773685,-1.4126626,6.832406
870,16.54278,0.8344969,9.565608
871,17.53939,0.47018966,10.245768
872,16.375282,-2.0712872,7.347162
873,12.971192,-2.7972097,5.18405
874,9.701401,-1.5275182,3.3804603
875,7.478169,0.3361916,4.288237
876,4.88405,0.41754755,6.38435
877,-0.036490545,-0.74177504,9.845867
878,-5.395217,-2.1601207,12.09512
879,-11.12513,-4.124329,7.941479
880,-13.86551,-6.2252274,3.3804603
881,-10.667502,-11.945569,-2.3928227
882,-4.6501517,-17.191832,-11.974881
883,-2.7074788,-20.274685,-7.43779
884,-6.207281,-32.187653,-1.2335001
885,-10.952847,-41.860638,-3.4205399
886,-13.087244,-42.315872,-2.074278
887,-10.353744,-29.440094,1.5335002
888,-8.609974,-23.616562,2.879762
889,-10.301102,-23.187649,3.0496526
890,-13.959129,-23.20679,5.43081
891,-10.64836,-21.551556,7.7473617
892,-4.9399824,-18.327227,7.301698
893,3.813262,-17.26601,6.745965
894,8.201698,-16.492231,4.700401
895,13.373486,-16.87568,-2.102992
896,13.081263,-16.71267,-5.317749
897,11.109876,-14.207086,-5.4924254
898,5.348557,-10.187443,-5.346463
899,4.666004,-6.2730837,-6.5682983
900,-0.20398813,-2.5289145,-6.5754766
901,-4.0298123,1.646561,-8.786445
902,-6.9185476,6.20758,-9.445069
903,-8.729615,10.454541,-8.803194
904,-9.081959,13.755739,-8.623434
905,-5.11735,15.700805,-21.159132
906,-2.4391835,13.523336,-20.303997
907,-0.2952145,9.800702,-13.388142
908,2.3901308,5.4290156,-7.7754774
909,2.3231318,2.6476583,-3.077768
910,1.4321043,0.7193423,-1.7051853
911,-0.9921241,-2.1625135,2.1825533
912,-4.9806604,-6.9269223,14.009079
913,-3.4980075,-10.057931,36.924545
914,2.766402,-11.969497,29.795427
915,7.8592257,-15.399907,21.447168
916,6.5081787,-16.10908,15.702899
917,-3.140879,-6.975078,-31.634611
918,-4.0609193,-4.802395,-3.3702908
919,-7.9462647,-14.235799,46.092045
920,-13.094422,-22.97678,-33.560535
921,-12.677473,-25.221546,-23.362923
922,-9.747761,-18.54288,-11.467005
923,-3.1265218,-12.228221,-9.433105
924,1.9950159,-12.144472,-5.1140604
925,0.57936215,-12.039188,-3.216851
926,-0.3909274,-14.81546,-1.0657034
927,-2.9542387,-21.702602,1.9405792
928,-4.765007,-29.926136,1.6794624
929,-1.8690935,-35.893536,-4.8696933
930,2.5148566,-32.97579,-9.2126665
931,2.6249263,-31.02115,-9.480962
932,-0.4339982,-24.042784,-3.3990045
933,-5.639584,-23.37698,12.828221
934,-11.9922285,-21.616161,22.587349
935,-16.241882,-17.670996,15.367305
936,-14.962918,-13.543376,8.0013
937,-13.139887,-11.13829,10.185946
938,-7.783553,-9.260223,9.100801
939,-1.3755739,-7.7847495,7.622935
940,4.9749775,-5.9641104,7.280163
941,10.580463,-3.5566318,7.41446
942,15.898512,-0.92632145,8.008478
943,18.06641,1.5672989,9.390633
944,18.22942,0.39840496,6.9376903
945,15.948761,-0.5288138,2.932404
946,12.676577,-0.13100705,1.5813566
947,10.357632,0.57816577,0.60388863
948,7.62443,0.43429732,2.6449664
949,1.9998015,-1.3528421,6.777072
950,-4.302893,-3.0607193,12.876078
951,-7.824231,-4.05733,14.059628
952,-13.599607,-5.111368,6.1471615
953,-13.5278225,-4.9866424,-0.68494546
954,-10.629217,-7.856534,-2.3952155
955,-7.5344005,-10.630414,-6.4292154
956,-3.4860435,-14.075181,-10.645369
957,-6.53779,-23.099113,1.7467605
958,-10.521541,-34.01786,-0.8500503
959,-13.027124,-39.707096,-2.0192432
960,-8.42782,-32.896824,1.387239
961,-4.975875,-25.686354,1.0974083
962,-6.2312093,-23.30041,2.2160528
963,-8.025527,-23.348267,2.472384
964,-6.9858456,-22.627129,4.173382
965,-3.792624,-20.701206,7.8888373
966,1.3432708,-19.673489,8.775079
967,6.9969125,-17.778673,6.2934227
968,9.22463,-17.543877,3.01376
969,11.48824,-18.05654,1.087837
970,7.667501,-16.303198,-2.0862422
971,4.383352,-13.713566,-2.71376
972,3.5306098,-9.880862,-4.189533
973,-0.44117668,-4.9842496,-5.8304114
974,-3.0786655,-1.5394822,-7.602895
975,-5.4406805,2.8776684,-9.116954
976,-6.8228345,7.6184483,-9.912268
977,-7.3809605,10.988739,-10.036695
978,-7.0265236,15.513865,-13.352249
979,-5.4167523,16.07917,-19.345673
980,-3.6487553,14.75235,-14.528322
981,0.0738784,9.582657,-10.448858
982,2.7640092,5.5917273,-5.193023
983,2.3422742,1.9076779,-1.9639091
984,-0.21834506,-1.82692,1.2436695
985,-3.7208393,-5.820242,8.732008
986,-5.352146,-8.728418,23.294128
987,-1.1216356,-10.173085,24.453451
988,3.2045877,-11.274981,21.648464
989,2.5986054,-12.94218,14.668003
990,-4.645366,-9.734601,-28.920551
991,-6.111269,-5.983253,-25.61726
992,-10.087841,-8.577671,28.492537
993,-19.059132,-31.523943,-7.765906
994,-7.539186,-27.324839,-39.23571
995,-7.6755767,-22.198515,-18.84258
996,-3.629613,-13.435699,-11.927025
997,4.5269213,-11.55524,-6.9993052
998,6.404988,-12.393625,-0.99631155
999,3.7196429,-15.234802,1.5358931
1000,0.74446696,-19.920248,4.681258
1001,-1.9193429,-24.852453,6.2548385
1002,-2.582753,-32.37459,0.40528435
1003,0.5096712,-31.4713,-6.9131637
1004,1.7434704,-25.599913,-9.51476
1005,-2.3599212,-21.956541,-6.2925253
1006,-9.323633,-21.630518,11.347662
1007,-15.04906,-21.41038,22.127628
1008,-18.611076,-17.213367,14.9147625
1009,-17.025232,-15.069399,9.146265
1010,-13.980664,-12.350554,7.974979
1011,-13.345669,-11.689238,8.535498
1012,-6.454041,-7.0492554,8.609675
1013,0.41635114,-4.435695,8.013264
1014,6.3308105,-2.6632116,7.54128
1015,12.67179,-1.2233306,7.646863
1016,17.29263,0.20668006,8.621639
1017,19.031914,0.043968115,6.4298134
1018,17.644674,-0.45912284,3.4331024
1019,15.033806,-0.047258247,2.0868404
1020,12.511172,0.77677006,3.8090746
1021,10.096515,0.5949155,6.559325
1022,4.5077786,0.18753748,8.513962
1023,-2.2067807,-1.0363913,8.181061
1024,-6.4492555,-2.4595225,3.8931224
1025,-9.757333,-4.119543,1.2532408
1026,-9.920343,-5.415556,3.028117
1027,-8.159525,-9.765707,1.9477576
1028,-3.5267215,-15.337694,-8.944371
1029,-2.0892332,-18.475882,-9.390035
1030,-5.1053863,-24.874289,-1.1446666
1031,-12.270096,-35.687454,-4.002594
1032,-17.279171,-40.097427,-2.7999015
1033,-12.811472,-30.850962,1.3393825
1034,-9.052945,-21.918255,2.7670002
1035,-9.462716,-19.366909,3.8234315
1036,-10.682158,-19.74288,5.0548377
1037,-10.293923,-20.33959,5.9697933
1038,-4.1255255,-19.893927,7.917551
1039,3.6574295,-18.514166,8.858828
1040,9.102298,-18.878174,8.592925
1041,13.414463,-19.127327,4.2427735
1042,14.070695,-19.64956,0.97537434
1043,10.616356,-17.25644,-1.6980067
1044,4.3354955,-13.006785,-2.1197417
1045,0.06430711,-7.988139,-3.135495
1046,0.8859426,-5.9138613,-5.2289157
1047,-2.6186452,-2.3395824,-7.0902324
1048,-6.298208,2.1445673,-7.725228
1049,-7.919944,6.6768723,-8.822337
1050,-8.847162,11.053644,-9.413962
1051,-8.710473,13.992928,-9.749257
1052,-6.8874407,14.572589,-13.922339
1053,-3.7304106,13.166507,-18.777975
1054,-0.52522457,9.089137,-13.361821
1055,3.6311083,5.0072803,-7.0758758
1056,4.642076,3.289832,-4.2589254
1057,4.098307,-1.599602,0.5703891
1058,0.7755736,-4.751847,5.32074
1059,-1.2221341,-7.763214,18.227625
1060,3.106482,-10.237692,24.523142
1061,7.861619,-11.9407835,18.146269
1062,3.106482,-17.670996,11.556137
1063,-6.4037914,-19.905891,-3.9978085
1064,-4.039384,-14.724533,13.759927
1065,-18.517756,-25.115963,-20.878874
1066,-19.01606,-25.154549,-19.37678
1067,-9.362218,-11.48824,-6.4411793
1068,-7.2708907,-7.624131,-7.4234333
1069,-3.354139,-6.5342007,-8.414959
1070,-3.8141594,-7.3079796,-9.557831
1071,-5.2369914,-9.034999,-8.209176
1072,-7.931908,-14.700605,-4.4554358
1073,-6.53779,-21.568306,1.6268203
1074,-3.1671999,-31.33491,2.7478578
1075,1.654936,-36.19294,1.0782657
1076,4.7808595,-35.92943,-4.0528436
1077,6.433702,-29.91178,-9.744472
1078,6.6182485,-24.981966,-6.5464635
1079,3.62393,-23.254646,0.8889336
1080,-4.5281177,-22.109682,16.066906
1081,-15.487246,-16.683956,21.892832
1082,-17.77987,-13.10519,13.759927
1083,-17.130816,-10.690534,9.690035
1084,-11.922837,-8.682955,8.236095
1085,-6.6502523,-7.7823567,7.7186475
1086,1.4967105,-5.130511,5.8836517
1087,6.9128647,-2.6485555,4.4775696
1088,10.51825,-1.3504493,5.176872
1089,13.16531,-0.07597212,8.528319
1090,15.792929,0.7959126,11.759826
1091,17.695223,-2.6389842,11.867503
1092,16.72254,-4.019045,10.796715
1093,14.22892,-3.1013973,7.4718876
1094,8.355139,-0.5479564,-0.23449662
1095,5.767899,0.5662017,-2.4765713
1096,2.2465613,0.20668006,0.8315059
1097,-3.4307094,-1.4437693,8.015656
1098,-8.176275,-3.3672996,11.0913315
1099,-11.554043,-8.793025,1.1428719
1100,-8.226524,-13.8021,-8.961121
1101,-8.226524,-13.8021,-8.961121
1102,-9.424431,-21.271296,0.46989053
1103,-12.193525,-30.153753,-0.44057846
1104,-13.511073,-33.629627,-2.5339992
1105,-12.727723,-28.24458,-0.37806597
1106,-11.630613,-24.018854,1.5837495
1107,-11.067702,-22.095324,3.7803607
1108,-13.774583,-24.282364,2.2112672
1109,-15.386747,-26.02404,0.5201398
1110,-10.7683,-23.51337,2.0700908
1111,-1.9743778,-20.090439,2.7047868
1112,3.772285,-19.014864,6.5760746
1113,7.344171,-18.483059,8.880363
1114,12.954443,-18.981365,6.142376
1115,16.468601,-18.231514,2.934797
1116,13.776078,-17.4027,2.024627
1117,8.886943,-14.810675,-1.2981063
1118,0.0041874396,-10.460524,-3.923631
1119,4.505386,-8.170293,-7.6917286
1120,1.4057833,-3.7938204,-10.420144
1121,-2.458326,-0.55034924,-11.018949
1122,-6.7797637,5.6180487,-11.737693
1123,-8.890233,11.609377,-12.420245
1124,-9.819546,16.534405,-15.742978
1125,-8.240881,17.928522,-26.15385
1126,-4.81077,16.251753,-16.130915
1127,-0.35503507,11.78166,-11.179566
1128,3.7797625,7.5176506,-4.469793
1129,4.1892343,4.1330028,-1.5017953
1130,1.8631115,0.68105716,0.48903313
1131,-3.042773,-4.217649,6.7698936
1132,-4.8562336,-8.556135,27.234808
1133,0.8356933,-12.326626,36.352062
1134,-1.3372887,-18.583557,29.220552
1135,-11.110773,-19.45305,-19.340887
1136,-6.3221364,-14.286049,-15.587146
1137,-6.9451675,-23.875286,-6.227919
1138,-11.196915,-26.244478,-27.60779
1139,-7.373782,-16.820347,-12.710075
1140,-7.036095,-12.237792,-10.429716
1141,-2.4008985,-7.4036922,-12.67179
1142,0.2868396,-6.201299,-12.3149605
1143,-1.5311074,-8.373981,-10.012766
1144,-3.5985062,-13.143476,-3.8036907
1145,-6.1737814,-18.50938,8.006085
1146,-7.2565336,-27.664919,8.6961155
1147,-5.023731,-32.843884,5.404489
1148,0.57457656,-35.033615,-3.609573
1149,5.1882377,-32.7051,-10.120743
1150,6.2350974,-25.82753,-9.069097
1151,3.4513476,-23.690739,0.35234314
1152,-1.971985,-22.377977,12.792329
1153,-7.8433733,-21.048464,20.560926
1154,-15.259928,-16.511374,14.936298
1155,-14.716158,-12.67867,9.55125
1156,-13.240385,-10.069895,7.5029945
1157,-9.867402,-9.19801,7.4192457
1158,-2.635395,-7.4276204,5.2031927
1159,3.5928233,-4.8861437,4.5206404
1160,8.405388,-2.3204398,6.053841
1161,11.493027,-0.9693923,7.9366937
1162,13.730615,0.5204389,10.868798
1163,15.246767,-0.57906306,10.01815
1164,15.186946,-2.3829522,7.620542
1165,13.4407835,-2.6413772,6.793822
1166,12.9018,-2.4499512,6.5521464
1167,8.151449,-0.21475583,4.616353
1168,2.481357,-0.6364908,3.7420754
1169,-0.9610174,-1.314557,5.160122
1170,-6.0011992,-2.5193431,8.216953
1171,-11.237891,-4.059723,8.073085
1172,-13.839189,-7.3103724,5.6799626
1173,-9.029017,-13.653745,-6.4005013
1174,-4.67408,-16.470695,-13.486247
1175,-3.9720855,-20.464018,-3.473182
1176,-7.0169525,-29.11407,-0.28953153
1177,-9.105886,-38.57888,-1.2981063
1178,-8.86152,-35.72574,-0.5626124
1179,-8.957232,-27.466015,0.57517475
1180,-9.12503,-23.635704,1.4641083
1181,-9.532108,-22.476381,1.4063815
1182,-12.152847,-21.75046,3.2796626
1183,-11.92523,-20.667706,4.1662035
1184,-4.645366,-18.827925,5.217849
1185,1.4560326,-18.38944,6.4178495
1186,7.8400836,-16.54248,5.8190455
1187,11.962618,-17.083857,4.182953
1188,13.155739,-16.832312,-0.60807604
1189,11.859726,-14.621343,-2.7305098
1190,7.3728848,-11.282159,-3.1905298
1191,2.7520452,-7.434799,-4.584648
1192,-1.1240284,-3.5231323,-7.4210405
1193,-1.4210376,0.49651068,-10.360324
1194,-4.781757,2.8728826,-9.732507
1195,-8.413464,8.157432,-9.627223
1196,-8.660223,13.22872,-11.802299
1197,-6.554539,15.296119,-19.776978
1198,-4.221238,14.831313,-18.770796
1199,-1.090529,11.472688,-14.008481
1200,1.5493526,8.353942,-10.865808
1201,2.5674987,5.395516,-5.6554365
1202,1.055833,1.7398812,-1.5305092
1203,-0.49142596,-0.78035927,1.5215361
1204,-3.842873,-5.3123655,10.8352995
1205,-4.971089,-9.753743,31.635208
1206,0.24616162,-13.371093,39.90929
1207,-0.64965135,-21.72653,33.12534
1208,-8.475677,-24.529123,-6.4555364
1209,-8.181061,-22.2368,-37.45575
1210,4.138985,-25.74378,-7.401898
1211,-5.9653068,-20.514267,-11.790335
1212,-5.306383,-13.684852,-12.027523
1213,-4.4775696,-10.170692,-11.768799
1214,0.13848461,-3.7049868,-15.244673
1215,-1.21017,-4.546064,-14.363217
1216,-5.2202415,-8.009974,-10.300204
1217,-8.897412,-12.2330065,-4.6085763
1218,-11.846267,-19.024435,4.2714877
1219,-10.303494,-30.065218,8.331808
1220,-5.8672013,-33.89553,5.0955157
1221,0.6152545,-34.79643,-3.106781
1222,5.1379886,-31.358837,-11.989238
1223,5.7224355,-26.447868,-8.678469
1224,3.0753753,-24.84049,3.9361932
1225,-2.9997022,-22.505095,18.51267
1226,-12.195918,-18.281763,20.912971
1227,-16.627724,-13.344473,11.86511
1228,-18.0697,-9.873384,9.06491
1229,-14.601004,-8.443374,9.783653
1230,-6.8802624,-8.151151,8.528319
1231,0.93619186,-7.1784678,5.7927246
1232,8.043473,-4.807181,4.491926
1233,13.170095,-2.2677977,5.6967125
1234,15.876976,-0.31316066,9.304491
1235,16.957336,0.65952176,8.542676
1236,15.831512,-1.4988043,6.465706
1237,13.486247,-2.414059,5.541179
1238,9.238987,-1.4437693,3.7923248
1239,7.3920274,-0.349053,3.179164
1240,4.584648,0.28085756,4.5948176
1241,0.18873389,-0.2724827,7.4886374
1242,-4.518247,-1.5466608,11.910872
1243,-9.218349,-3.012863,8.683852
1244,-10.82812,-5.2022953,2.6090739
1245,-7.0863442,-10.949257,-8.223534
1246,-4.7988057,-14.127823,-10.947164
1247,-6.0801625,-18.19323,-1.6716857
1248,-9.052945,-27.39423,2.4293132
1249,-10.121341,-34.070503,-0.22971097
1250,-11.084452,-32.923145,-0.31585258
1251,-10.923834,-27.760632,0.82672024
1252,-10.114162,-22.79014,3.1313076
1253,-12.008979,-22.73032,1.8975084
1254,-13.494324,-23.415264,2.4699912
1255,-13.259527,-23.213968,3.670291
1256,-5.7209396,-19.28316,5.150551
1257,-1.7204394,-17.647066,7.5843506
1258,6.309275,-17.29951,7.795218
1259,9.25813,-17.354544,5.0309095
1260,12.159128,-16.475481,2.146661
1261,10.391131,-17.876778,-0.43579283
1262,9.298808,-16.128223,0.00029910283
1263,5.2624154,-12.970893,0.7956135
1264,1.9543378,-9.463913,-1.4488541
1265,0.85244304,-5.0416775,-5.0159545
1266,-0.9825528,-0.6580262,-7.6941214
1267,-3.6200416,4.0851464,-8.819944
1268,-5.0742793,8.902496,-8.982955
1269,-5.6324053,11.95185,-9.584152
1270,-3.1866415,17.784954,-18.056837
1271,-2.1182463,17.684156,-21.410679
1272,-1.727618,14.455042,-14.578571
1273,2.047658,8.238788,-9.785448
1274,3.4082768,4.322335,-3.6816568
1275,1.788934,1.0857433,-0.69212395
1276,-1.6103697,-2.658426,3.298805
1277,-4.975875,-6.294619,11.192129
1278,-4.1757746,-9.803992,36.78307
1279,-0.62811595,-13.912469,48.44688
1280,-11.532508,-24.442982,11.941979
1281,-10.44497,-20.370697,-35.1727
1282,-2.7505496,-21.721745,-0.40917268
1283,-9.079565,-24.165115,-17.156239
1284,-5.4813585,-16.691133,-17.316858
1285,-3.1193435,-9.183653,-13.057633
1286,1.4177474,-5.1664033,-14.046766
1287,2.5387847,-5.8250275,-13.481462
1288,0.9098708,-7.573882,-13.067204
1289,-3.5506496,-15.867106,-3.7821553
1290,-7.129415,-20.622242,6.686145
1291,-7.5678997,-25.439592,10.325029
1292,-5.7352967,-32.446377,7.615457
1293,-1.5239289,-33.440594,-2.9509485
1294,2.2202404,-30.494131,-10.808081
1295,4.4024944,-24.931717,-10.458429
1296,1.055833,-22.93371,3.5120654
1297,-2.992524,-22.018753,14.77568
1298,-9.029017,-19.24966,19.214664
1299,-13.161422,-15.41905,12.171989
1300,-13.698012,-10.913066,7.5676007
1301,-12.344572,-9.068499,7.2969127
1302,-7.5678997,-8.302197,6.8515487
1303,-0.8844471,-7.372586,6.087341
1304,5.8061843,-5.8322062,5.555536
1305,10.046266,-4.2248273,6.95444
1306,12.990335,-1.9971097,11.84836
1307,14.856438,-1.218545,12.737294
1308,13.550854,-3.2213376,10.219446
1309,11.682359,-3.67388,7.9773717
1310,7.995617,-1.8774685,4.961518
1311,5.5666027,0.7719844,2.7358935
1312,4.174877,2.650051,2.3623142
1313,2.0739791,2.6165516,3.9146578
1314,-2.1083758,1.1147562,7.2586274
1315,-7.012167,-1.7623138,8.930613
1316,-11.55165,-5.077869,8.497212
1317,-11.328819,-12.436696,1.0447662
1318,-8.16431,-16.456339,-9.112167
1319,-5.4813585,-19.877178,-10.056136
1320,-7.711469,-28.929825,-2.716153
1321,-10.559826,-38.03272,-3.2096725
1322,-9.654441,-38.947674,-0.7615158
1323,-7.2876406,-29.305796,1.7659031
1324,-8.487641,-23.724237,2.3814569
1325,-9.925129,-22.428226,2.0222342
1326,-11.625828,-22.40669,2.3718855
1327,-12.766008,-22.296621,4.9229336
1328,-7.8050885,-20.020746,6.422635
1329,-2.1780667,-19.005293,6.4680986
1330,6.055337,-18.609879,5.727819
1331,11.277672,-18.135502,3.0161529
1332,13.13869,-18.195621,1.4880366
1333,10.657034,-16.480267,-2.1101704
1334,8.002795,-13.885849,-3.4827533
1335,4.060022,-7.8254275,-3.964309
1336,0.9840483,-4.2056847,-4.682754
1337,-1.8834505,-1.2568301,-6.8171515
1338,-4.4057846,3.5365918,-8.922835
1339,-5.3760743,8.739486,-9.294321
1340,-5.641977,12.895819,-12.305389
1341,-3.6726837,16.661524,-23.458935
1342,-3.1767712,16.237396,-24.948765
1343,-2.9805596,14.871991,-14.746367
1344,-0.18245272,9.218648,-8.903693
1345,1.625923,5.151149,-3.3631122
1346,2.4765713,2.0584257,-1.4297116
1347,1.3938192,-1.2831511,0.4004987
1348,-2.1661026,-5.8537416,7.023832
1349,-3.3684962,-8.83161,21.459133
1350,3.8204405,-12.503695,36.993935
1351,5.5522456,-17.58216,25.936403
1352,-3.0475588,-19.35255,3.0400813
1353,-7.335497,-12.376875,-25.334608
1354,-1.957628,-11.346765,9.306884
1355,-12.323036,-30.386156,-1.4201403
1356,-10.30828,-24.95086,-28.815268
1357,-8.183454,-17.132011,-15.723836
1358,-4.3531427,-9.782457,-13.644473
1359,0.9601201,-6.4528446,-12.221641
1360,2.716153,-6.07418,-10.829617
1361,-0.58265233,-10.029217,-6.687939
1362,-4.0202413,-16.257435,0.92482597
1363,-5.215456,-19.75963,5.330312
1364,-5.6946187,-32.666813,4.7985067
1365,-2.0461624,-35.960537,-2.4717858
1366,2.6153553,-31.01128,-11.998809
1367,2.3638096,-25.544878,-13.261322
1368,0.4019942,-23.396122,-3.6840496
1369,-6.4348984,-23.175684,18.999012
1370,-12.502499,-19.537098,23.837898
1371,-16.091135,-15.239589,13.963615
1372,-15.837195,-12.293126,8.0013
1373,-15.324533,-9.9909315,8.751151
1374,-11.094023,-8.761918,8.748757
1375,-3.1624143,-7.842177,6.2117677
1376,4.093521,-6.5485573,5.871688
1377,10.165907,-4.2535415,6.875477
1378,14.444274,-1.707279,11.548959
1379,16.904694,0.0846461,13.460525
1380,18.468702,-2.1000009,9.280562
1381,15.230017,-2.806781,5.7640104
1382,11.2343025,-1.5131612,2.3288147
1383,8.738289,1.1697912,-0.9723833
1384,7.3178496,2.2788644,0.63978094
1385,3.2069805,1.4715859,4.834399
1386,-2.4152553,-0.46151567,8.863613
1387,-8.025527,-3.0200412,8.787043
1388,-12.87877,-5.415556,6.8802624
1389,-13.544573,-10.1802635,4.87747
1390,-8.777472,-16.226328,-6.9059854
1391,-5.658726,-18.918852,-10.089636
1392,-7.673184,-26.323442,-3.9212382
1393,-10.794621,-34.326836,-3.8973098
1394,-14.783157,-41.827137,-2.9724839
1395,-10.387243,-34.197323,0.0840479
1396,-9.32124,-31.124043,0.6831509
1397,-4.755436,-20.198114,0.5512465
1398,-7.742875,-19.960926,2.187339
1399,-8.743972,-19.764416,3.140879
1400,-3.723232,-18.32962,5.675177
1401,-1.698904,-17.66621,10.262517
1402,3.5856447,-16.72942,9.594321
1403,9.816256,-16.80599,4.2906303
1404,12.489636,-16.456339,0.28295127
1405,11.445169,-15.2324095,-2.2752752
1406,5.645566,-12.170794,-3.8276188
1407,4.004688,-8.072187,-3.7965121
1408,-0.9275179,-5.4610195,-6.5440707
1409,-3.4163525,-4.1147575,-6.5105715
1410,-3.0020952,-0.6795616,-8.683254
1411,-4.247559,5.361717,-9.02124
1412,-6.3388863,8.368299,-8.494222
1413,-6.0634127,12.169896,-9.780663
1414,-4.384249,13.85863,-19.57329
1415,-3.1839497,13.453944,-20.473888
1416,-1.2556337,11.822638,-12.434602
1417,1.6525432,7.5203424,-6.1944194
1418,2.6249263,4.106682,-1.0202397
1419,1.2930216,0.6978069,1.41356
1420,-1.4162519,-3.501597,6.3891354
1421,-1.5239289,-6.68764,19.034904
1422,3.2814572,-9.209974,27.301807
1423,1.0007981,-15.153148,36.555748
1424,-15.729219,-19.62324,0.558425
1425,-11.472388,-15.804893,4.913362
1426,-11.968301,-28.558338,-22.905594
1427,-7.900801,-26.785854,-30.616465
1428,-5.205885,-18.25305,-17.331215
1429,-4.156632,-11.284552,-10.477572
1430,3.5784662,-7.6576304,-11.483754
1431,4.5675993,-8.613564,-9.936196
1432,0.8668,-13.5074835,-5.6745787
1433,-0.5491528,-20.380268,0.910469
1434,-1.9145572,-23.48705,6.9305115
1435,-4.590331,-29.883064,8.238488
1436,-3.2009985,-30.829426,3.4331024
1437,-0.33589247,-27.161827,-5.743971
1438,1.1350952,-24.279972,-10.163814
1439,-0.88683987,-20.938395,-5.171488
1440,-5.5675,-21.496521,8.545069
1441,-9.306884,-21.33351,15.700506
1442,-13.872688,-18.401403,15.655042
1443,-13.422539,-14.204693,9.460024
1444,-11.743076,-11.32523,7.6130643
1445,-8.301001,-8.659027,7.3256264
1446,-4.1901317,-7.2026954,4.508676
1447,-0.4339982,-5.892326,5.002196
1448,5.360521,-3.9158542,6.4465632
1449,10.855937,-1.3046865,8.880363
1450,13.380664,-0.84735835,10.842478
1451,15.354743,-1.4150555,10.768001
1452,15.929619,-2.8091738,9.891331
1453,14.034802,-3.0942187,7.469495
1454,11.167303,-1.0052847,3.696612
1455,8.472386,0.84406817,1.198206
1456,5.061119,0.91585284,2.1801605
1457,0.24137598,-0.5982057,5.651249
1458,-4.1231327,-2.3012972,8.149654
1459,-7.6420774,-3.5350964,6.5422764
1460,-10.183853,-5.4299126,3.0113673
1461,-6.5234327,-10.685748,-2.6276183
1462,-2.175674,-14.276477,-12.834802
1463,-2.1083758,-14.988043,-12.365211
1464,-8.147561,-27.562027,0.70229346
1465,-11.877374,-37.474594,-1.7892331
1466,-14.838192,-40.497627,-1.0465608
1467,-11.886945,-28.57748,1.1859428
1468,-9.987343,-22.02354,3.6005998
1469,-10.2723875,-20.274685,2.8917263
1470,-12.627224,-20.902502,2.513062
1471,-10.516754,-19.975283,2.024627
1472,-4.995017,-18.118752,4.1180477
1473,0.20548365,-17.840885,6.0921264
1474,6.079265,-16.35584,5.965008
1475,9.157631,-16.46591,4.4081774
1476,11.761321,-16.6696,1.6268203
1477,11.617752,-16.353447,-1.2044871
1478,6.8913293,-14.223835,-1.3268201
1479,2.0021944,-10.936995,-1.7482561
1480,-0.93230355,-5.7245293,-4.0815573
1481,-1.5000007,-2.414059,-5.9931235
1482,-4.5951166,1.6728821,-7.6749787
1483,-5.9581285,6.166603,-8.268997
1484,-6.8132634,10.727622,-8.321639
1485,-7.2397842,13.312469,-14.521143
1486,-6.1857457,14.720944,-21.448963
1487,-4.0441694,13.731811,-13.10549
1488,-3.1866415,12.3759775,-10.676476
1489,1.0462617,7.029216,-6.3957157
1490,2.2202404,4.032205,-3.1307094
1491,1.2403795,0.48215377,-0.18185452
1492,-1.6247265,-3.9756749,7.5029945
1493,-1.9767706,-8.43141,28.660032
1494,4.5149574,-11.694023,30.267412
1495,6.678069,-15.747166,19.89004
1496,6.678069,-15.747166,19.89004
1497,-7.2469625,-9.590733,-22.517359
1498,-6.815656,-11.674881,15.458531
1499,-16.80958,-29.279474,22.096521
1500,-12.064313,-28.826633,-30.28835
1501,-10.962418,-20.832811,-16.411175
1502,-5.040481,-10.450952,-11.847762
1503,0.5841478,-6.6370916,-11.275279
1504,1.87029,-6.7833533,-7.8496547
1505,-2.3718855,-10.561022,-0.31585258
1506,-5.759225,-16.501802,5.857331
1507,-5.241777,-20.617456,7.89123
1508,-4.0824547,-27.79413,7.7497544
1509,0.32063824,-32.920753,-2.265704
1510,4.706682,-30.494131,-9.818948
1511,7.1955166,-24.06701,-11.689836
1512,5.185845,-21.496521,-6.3215384
1513,3.0107691,-21.338295,-0.9843474
1514,-5.8624153,-21.4032,20.23999
1515,-10.497612,-17.812172,21.372992
1516,-11.941979,-13.421342,10.777573
1517,-12.169597,-10.4051895,6.940083
1518,-12.059527,-9.209974,7.7880397
1519,-7.591828,-7.4156566,6.9281187
1520,-1.9241285,-5.171189,5.3159547
1521,4.0552363,-2.8474588,5.1816573
1522,9.1719885,-0.50458646,7.1629148
1523,13.050156,0.8919246,9.469596
1524,14.681462,0.51086766,8.065906
1525,14.949758,-0.5312066,4.915755
1526,14.120944,-0.1477568,3.4522448
1527,11.943475,1.0522437,2.3886352
1528,10.070194,1.6513467,3.0690942
1529,6.174978,1.1697912,5.4355955
1530,1.9567307,-0.30119655,7.7258263
1531,-2.4702902,-2.0377877,9.771689
1532,-6.7845497,-4.0405803,9.539287
1533,-9.431609,-6.009574,7.970193
1534,-7.563114,-12.376875,-3.786941
1535,-3.4187453,-15.294623,-13.939089
1536,-4.6692944,-20.267508,-7.0639114
1537,-9.843474,-31.121649,-2.5725834
1538,-12.205489,-35.75445,-2.80708
1539,-13.709976,-39.23511,-0.9723833
1540,-8.684152,-24.938894,2.8151557
1541,-8.449356,-21.110678,4.8990054
1542,-10.82812,-21.26651,3.5336008
1543,-11.29532,-22.239193,3.73729
1544,-10.820942,-22.04986,4.714758
1545,-3.888337,-19.635204,5.7349977
1546,0.23659034,-18.693628,7.332805
1547,6.067301,-17.613268,6.408278
1548,8.767003,-17.17269,3.298805
1549,11.902797,-17.840885,1.9118652
1550,10.872687,-17.747566,-1.5616158
1551,7.2003026,-15.955641,-0.6873383
1552,3.731607,-12.635599,-0.34217364
1553,0.907478,-9.394521,-1.3627125
1554,-2.6668007,-2.3371894,-7.7826557
1555,-4.6692944,2.2262223,-9.011669
1556,-6.5760746,6.193223,-9.65833
1557,-6.530611,11.992528,-9.169596
1558,-6.053841,15.063716,-12.257533
1559,-4.3555355,16.189539,-20.351854
1560,-3.4764721,15.044573,-16.418352
1561,-0.62093747,9.949356,-9.890733
1562,1.9328024,6.193223,-4.6636114
1563,2.3231318,3.8359938,-2.4215364
1564,0.3493521,-0.86171526,0.2757728
1565,-1.986342,-4.3519464,5.811867
1566,-1.6630118,-8.045866,23.979374
1567,3.4250264,-10.999507,27.570103
1568,-0.048454657,-14.695819,17.219051
1569,-10.056734,-13.689637,-21.38675
1570,-7.563114,-10.570593,0.39810586
1571,-18.134306,-29.70121,33.206696
1572,-14.699409,-32.0725,-32.839695
1573,-10.50479,-24.77349,-18.071196
1574,-7.031309,-15.153148,-9.2895355
1575,2.426023,-5.171189,-11.0811615
1576,6.754938,-4.3184466,-13.325929
1577,4.4336014,-9.952646,-11.682657
1578,3.5186458,-12.156436,-6.2111692
1579,0.80189466,-16.168901,2.0557337
1580,-3.682255,-28.081867,9.326026
1581,-2.757728,-34.997425,2.1777678
1582,2.5172493,-30.941889,-9.049954
1583,2.5172493,-30.941889,-9.049954
1584,5.4996037,-22.617558,-11.443076
1585,-2.8486555,-19.613668,12.0640135
1586,-9.393325,-20.061724,22.163519
1587,-14.100306,-17.826529,17.83251
1588,-14.421243,-16.089937,12.428021
1589,-14.598611,-11.41855,8.169097
1590,-14.289638,-10.335797,9.2997055
1591,-8.65783,-9.329616,7.845467
1592,-1.2580265,-7.3199434,6.916155
1593,3.4657044,-5.360521,7.6106715
1594,10.1802635,-2.8785655,9.795618
1595,13.84547,-1.4700904,12.545569
1596,16.018152,-0.33469605,11.489138
1597,16.808681,-1.9085752,5.667999
1598,15.062519,-0.20997019,1.8783658
1599,13.234702,0.8006983,-0.1794617
1600,11.241481,1.3396816,1.0088738
1601,5.825327,0.3074777,6.1160545
1602,-0.06520442,-1.4198412,10.650753
1603,-6.98106,-3.918247,12.315559
1604,-11.786447,-5.619245,9.613464
1605,-15.269499,-7.9331045,4.829613
1606,-11.288141,-14.884852,-4.8122654
1607,-4.659723,-17.936897,-16.109379
1608,-3.5291142,-20.574087,-8.048558
1609,-9.901201,-30.889246,-2.754438
1610,-9.901201,-30.889246,-2.754438
1611,-11.640184,-38.811283,1.4590236
1612,-9.434002,-27.509085,1.8400806
1613,-8.042277,-21.108286,2.865405
1614,-8.260024,-19.347765,4.2906303
1615,-11.333605,-19.44348,4.415356
1616,-11.043774,-19.203897,4.115655
1617,-1.1575279,-17.275581,5.90758
1618,5.6383877,-16.980965,7.845467
1619,8.930014,-16.250257,5.2944193
1620,11.174481,-16.861324,2.268994
1621,10.652248,-17.124834,-1.2909278
1622,8.877372,-14.156537,-4.019344
1623,4.8529434,-9.811171,-3.7031922
1624,1.6884354,-6.385546,-4.107878
1625,-1.7371893,-2.3515465,-6.599405
1626,-3.2703903,1.2822539,-8.091629
1627,-6.0514483,7.326225,-8.455936
1628,-6.298208,12.143575,-9.198309
1629,-5.9844494,15.291333,-16.6029
1630,-5.1532426,15.899708,-18.763618
1631,-2.8486555,13.930415,-13.7019005
1632,-0.05802595,9.290433,-8.438888
1633,1.9447666,5.5199428,-4.2302113
1634,1.6597216,2.2812574,-2.2130618
1635,-0.050847482,-1.3193426,-0.13848461
1636,-2.6715865,-5.6838512,6.1232333
1637,-1.8041883,-9.262616,26.714968
1638,2.6105695,-11.073684,25.282564
1639,8.259127,-14.645271,23.191236
1640,-7.4697943,-19.714167,-3.3293135
1641,-7.8840513,-15.256338,-7.797013
1642,-1.5717853,-14.226228,19.921146
1643,-10.454541,-22.948067,-33.639797
1644,-9.036196,-20.411375,-26.02434
1645,-6.489933,-14.338691,-11.689836
1646,-2.2761726,-7.561918,-10.307383
1647,0.23659034,-6.66102,-8.506186
1648,0.20787647,-8.445766,-6.9993052
1649,-3.4163525,-11.564811,-1.8442681
1650,-5.919843,-15.57249,3.3397822
1651,-7.548757,-21.39363,3.9864426
1652,-6.9281187,-27.080471,2.1370897
1653,-2.6306095,-32.67878,-4.723731
1654,4.5149574,-30.752855,-9.65833
1655,4.9510493,-25.068108,-7.590931
1656,3.772285,-22.74707,-3.243172
1657,-1.8619151,-22.227228,12.638889
1658,-9.302098,-20.799313,21.574287
1659,-12.974483,-15.694524,13.994722
1660,-15.149558,-12.01496,7.9223366
1661,-17.24567,-9.171689,9.539287
1662,-16.023836,-8.522337,10.562219
1663,-10.610075,-8.630313,8.243274
1664,-2.1637099,-7.7560353,6.9041905
1665,5.466104,-5.793921,6.3915286
1666,12.456138,-2.8115666,7.704291
1667,17.793327,0.10378868,9.263813
1668,20.548065,0.40079778,6.4609203
1669,20.248663,0.84406817,3.4307094
1670,18.23899,0.74566334,1.9908284
1671,14.502001,0.29042885,3.4713874
1672,8.232805,-0.8330014,7.3785677
1673,3.743571,-1.2807583,10.01815
1674,2.3279173,-1.5753746,10.5741825
1675,-7.347461,-4.9938207,7.4096746
1676,-10.18146,-8.335697,3.3876386
1677,-7.4240313,-12.697812,-0.8644072
1678,-3.4163525,-16.621742,-11.083554
1679,-3.4573295,-19.177576,-10.261919
1680,-9.199206,-31.52155,-3.4133615
1681,-13.558929,-36.48995,-4.316353
1682,-14.009378,-33.469307,-0.6969096
1683,-12.148062,-26.316263,1.2293127
1684,-9.517751,-18.75614,2.865405
1685,-11.554043,-18.205193,2.7358935
1686,-14.047664,-19.625631,4.1901317
1687,-13.0055895,-19.20629,5.727819
1688,-6.59761,-17.58216,6.341279
1689,0.22941187,-17.486448,7.728219
1690,6.5488563,-17.175083,6.6909304
1691,10.587642,-17.639889,2.7646074
1692,13.222738,-17.754744,-0.60329044
1693,10.894222,-16.118652,-2.5941188
1694,7.1476603,-12.661921,-3.3317065
1695,2.536392,-10.077073,-3.5353954
1696,-1.7826529,-5.5710893,-3.3269207
1697,-4.106383,-0.9502497,-4.584648
1698,-5.8286166,2.3003998,-4.354638
1699,-5.8624153,5.7403817,-6.613762
1700,-5.205885,9.74806,-6.189634
1701,-2.8319056,14.44547,-10.324431
1702,-0.4339982,15.413367,-16.789839
1703,0.24616162,13.619049,-14.85883
1704,2.1050856,9.093923,-9.881161
1705,3.8874395,5.261219,-3.6960137
1706,3.0753753,2.5591238,0.6158527
1707,2.3422742,1.4811572,2.079662
1708,-0.23988047,-2.3252254,7.0286174
1709,-0.8605189,-8.429017,32.440094
1710,3.4250264,-13.981861,34.01158
1711,-2.417648,-17.699709,6.7387867
1712,-9.965807,-15.399907,-26.177778
1713,-3.6655052,-13.409378,28.535606
1714,-13.650156,-28.666315,-15.180067
1715,-9.158528,-24.136402,-22.862225
1716,-6.070591,-16.727026,-11.687443
1717,-2.0006988,-8.718847,-12.099308
1718,1.2092727,-5.604888,-12.125628
1719,0.8258229,-7.1306114,-13.194024
1720,-2.774478,-11.190932,-6.5512495
1721,-7.1677003,-15.323338,2.3742783
1722,-10.286744,-20.772991,8.643174
1723,-9.3308115,-28.805098,8.966804
1724,-3.1962128,-33.509987,2.431706
1725,2.9506495,-31.004103,-6.129813
1726,5.22413,-24.804598,-8.786445
1727,3.7627137,-22.260729,-3.554538
1728,-0.573081,-21.731316,7.457531
1729,-3.2081769,-21.575483,13.094124
1730,-8.964411,-18.89971,16.225132
1731,-9.620942,-14.88246,12.229418
1732,-8.835198,-10.6017,8.959625
1733,-8.17149,-8.656634,7.77129
1734,-6.3532434,-7.1617184,5.921937
1735,-2.7696922,-5.4466624,5.3327045
1736,0.78035927,-3.700201,6.856334
1737,4.8191447,-2.2390838,9.587143
1738,8.489137,-1.489233,12.722937
1739,11.862119,-1.6498512,11.46521
1740,12.480065,-1.7958134,10.497313
1741,13.733007,-0.8665009,3.2413774
1742,13.819149,0.115752794,1.7491534
1743,11.584252,-0.016151553,3.4809587
1744,6.960721,-1.1371889,6.940083
1745,1.1542379,-2.7182465,10.567004
1746,-4.944768,-4.1578283,10.389636
1747,-9.865009,-6.5677,5.18405
1748,-9.089137,-11.128719,-2.632404
1749,-6.3341007,-14.463416,-9.05474
1750,-5.6850476,-16.671991,-10.216455
1751,-7.7500534,-23.221148,-1.9136599
1752,-12.715758,-35.680275,-2.970091
1753,-15.087345,-37.931923,-2.876771
1754,-12.962519,-30.570702,-1.3674982
1755,-10.126126,-22.689342,0.45553362
1756,-8.760722,-18.291334,1.7225332
1757,-9.005089,-17.824137,2.3838496
1758,-11.120344,-18.430119,3.2629128
1759,-5.7137613,-17.23251,3.6487553
1760,1.2571292,-16.885252,5.4020963
1761,6.369096,-16.456339,6.736394
1762,9.773185,-16.829918,2.9706893
1763,10.031909,-17.151154,1.5957136
1764,8.9826565,-14.741283,-1.4946169
1765,5.56421,-9.679565,-2.0021944
1766,2.7185457,-8.522337,-0.83090764
1767,0.30388847,-6.6131635,-1.314856
1768,-1.6366907,-2.2989044,-3.4779677
1769,-2.611467,-0.23629123,-4.3594236
1770,-5.510072,6.6720867,-5.6410794
1771,-6.5497537,9.822238,-9.679865
1772,-5.1006007,12.4884405,-14.279169
1773,-4.403392,14.189139,-15.759728
1774,-4.075276,13.30529,-11.663515
1775,-1.3660027,9.400802,-7.9169526
1776,0.22941187,6.446862,-5.442176
1777,0.96490574,3.3281171,-2.4454648
1778,0.37806597,-0.23389842,2.1083758
1779,-0.22552353,-4.502694,12.466606
1780,0.69182485,-7.636095,22.707289
1781,6.4145594,-12.460624,30.217163
1782,-1.2795619,-18.384655,9.42174
1783,-9.520144,-17.723637,-20.402103
1784,-1.6486548,-16.140186,12.423236
1785,-4.664509,-25.02743,15.834504
1786,-10.5335045,-24.737598,-18.464216
1787,-7.673184,-17.8696,-12.029916
1788,-2.065305,-9.353843,-8.39821
1789,1.5086746,-6.8982086,-8.872586
1790,0.90508515,-8.519944,-9.68465
1791,-1.2221341,-11.41855,-6.7573314
1792,-4.247559,-14.530416,-0.62961143
1793,-6.178567,-18.684057,3.5383866
1794,-6.1977096,-24.538694,1.9046868
1795,-3.330211,-29.492735,-4.412066
1796,1.7985053,-29.84478,-9.54826
1797,3.9041893,-26.72095,-9.77797
1798,2.6895328,-22.442583,-1.6190436
1799,-2.705086,-21.709782,13.177873
1800,-10.449756,-20.241186,22.51317
1801,-14.596218,-15.857534,13.985151
1802,-16.170097,-11.6389885,8.19781
1803,-16.165312,-10.149158,8.9210415
1804,-9.683155,-8.718847,7.194021
1805,-2.7792635,-8.258827,6.619146
1806,4.138985,-6.838388,7.1078796
1807,8.472386,-4.9986067,7.349854
1808,13.831113,-2.2797618,10.899905
1809,15.711573,-1.3839488,11.719148
1810,16.461424,-1.7958134,8.449356
1811,15.27548,-1.6426728,4.211667
1812,13.399807,-0.0017946169,2.2785654
1813,11.296815,0.8006983,3.4043884
1814,8.058129,0.36729828,4.8822556
1815,2.2345972,-1.0797613,7.819146
1816,-2.283351,-2.5528426,9.65175
1817,-9.565608,-4.61067,8.916255
1818,-11.501401,-7.248159,4.1180477
1819,-7.821838,-13.294224,-4.1126637
1820,-5.500501,-15.778572,-11.591431
1821,-5.7137613,-19.057936,-5.9500527
1822,-8.65783,-28.26133,0.12502499
1823,-13.535002,-38.17629,-3.6481571
1824,-11.393425,-33.795033,-1.7315062
1825,-7.1629148,-24.1699,0.47228336
1826,-6.4755764,-19.287945,1.7635103
1827,-8.415856,-19.431515,2.7693932
1828,-12.940983,-20.57648,4.5158544
1829,-11.402996,-19.738094,5.6392846
1830,-4.377071,-17.697317,6.578468
1831,-1.7084754,-16.489838,6.068198
1832,3.4130623,-15.675381,5.2031927
1833,5.006084,-15.946069,3.7516468
1834,10.285848,-15.828821,0.38344982
1835,10.276276,-15.589239,-1.6190436
1836,7.1189466,-13.380664,-0.68494546
1837,3.1375887,-8.994321,0.17288144
1838,-0.35503507,-4.232006,-3.3149567
1839,-2.882155,0.055932228,-6.02423
1840,-3.938586,3.696911,-7.112067
1841,-4.607081,8.042277,-8.010273
1842,-3.8524444,12.026028,-13.309178
1843,-3.3278182,14.364115,-22.682762
1844,-3.3876386,15.046967,-19.963917
1845,-3.5985062,14.634803,-15.900905
1846,-1.5478572,9.34786,-5.432605
1847,0.030807592,5.409873,-2.4789643
1848,0.47138608,1.8164514,-0.6200402
1849,-0.37417763,-1.570589,3.0616167
1850,-0.9586246,-5.9521465,18.891335
1851,2.8573294,-9.933504,32.51218
1852,1.3241283,-16.762918,26.563921
1853,-11.300105,-21.127728,-5.751149
1854,-8.209774,-20.003998,5.3327045
1855,-13.149458,-29.832815,-17.237595
1856,-10.528719,-24.37359,-16.887943
1857,-9.122637,-20.571695,-12.700504
1858,-3.845266,-7.5499535,-11.256137
1859,1.0295119,-4.0238304,-16.598114
1860,3.1423743,-4.577171,-17.25913
1861,1.6788642,-10.76471,-12.458829
1862,-0.80548394,-17.908184,-1.0250254
1863,-3.5386856,-24.835705,7.64447
1864,-4.451248,-30.300014,7.0815587
1865,-0.07716853,-34.590343,-2.8265216
1866,5.331807,-29.320152,-9.591331
1867,6.294918,-23.324337,-7.2580295
1868,1.6115661,-22.069004,2.2375882
1869,-7.3666034,-21.268904,20.412273
1870,-12.066706,-20.770597,24.048765
1871,-17.413467,-15.66581,9.766904
1872,-17.451754,-12.836895,8.159525
1873,-15.590436,-10.668699,10.729716
1874,-11.934801,-10.000504,10.720144
1875,-3.3780673,-8.30459,7.8960156
1876,0.0065802624,-7.422835,6.7148585
1877,8.997013,-3.8560338,5.0069814
1878,12.556636,-0.6628119,8.013264
1879,14.221742,0.54436713,9.8937235
1880,14.451452,-0.8210373,6.8105717
1881,13.754542,-1.3719847,4.7769713
1882,11.969796,-0.7513463,0.47946185
1883,10.855937,0.70977104,2.405385
1884,7.049555,0.70977104,7.77129
1885,1.1159526,-0.6125626,11.340484
1886,-2.7553353,-1.8918254,9.623035
1887,-7.32114,-4.0716867,5.1673007
1888,-8.693723,-8.096115,0.4459623
1889,-7.833802,-9.662816,-1.0058829
1890,-6.1905313,-16.686348,-6.122635
1891,-8.341679,-24.212973,0.3164508
1892,-12.636795,-35.76642,-1.7147565
1893,-15.154344,-40.401913,-2.9653056
1894,-13.03191,-35.98925,-2.1317058
1895,-7.1772714,-21.46302,-0.059521463
1896,-6.897012,-18.035004,-0.44536412
1897,-11.434103,-19.16322,0.7262217
1898,-12.945768,-19.364515,2.0365913
1899,-7.867302,-17.30908,5.2680984
1900,-3.5865421,-16.39891,7.699505
1901,2.3015962,-16.008282,7.663613
1902,6.7334027,-15.735202,1.9166509
1903,9.370592,-15.981961,0.021834506
1904,9.145667,-15.040685,-0.9771689
1905,6.8171515,-12.800704,-0.03798606
1906,6.8171515,-12.800704,-0.03798606
1907,0.9409775,-5.152046,-1.451247
1908,-1.0450653,-0.76331043,-4.357031
1909,-1.7467605,1.6537396,-6.541678
1910,-1.9624137,5.491229,-6.0098734
1911,-1.8376877,8.615059,-8.542078
1912,-1.9121644,11.30519,-18.073587
1913,-2.5109682,12.37837,-20.735004
1914,-3.0619156,12.739986,-18.75644
1915,-2.568396,10.797313,-7.083054
1916,-0.98016,6.538089,-3.2312078
1917,0.41156548,3.287439,-1.0417751
1918,0.2533401,-0.39690945,3.1169505
1919,0.0065802624,-1.489233,4.9974103
1920,-0.11545369,-4.790132,13.012768
1921,6.9415784,-12.918251,33.082268
1922,-7.596614,-19.726131,6.908976
1923,-7.812267,-14.444274,-3.9116669
1924,-6.0107703,-20.41616,4.779364
1925,-7.8864446,-24.725636,-23.44697
1926,-9.000303,-20.569302,-17.731115
1927,-7.361818,-12.384053,-10.156635
1928,-2.5636103,-7.6480594,-11.907583
1929,0.16480567,-6.5724854,-11.122139
1930,-1.2843475,-10.427024,-11.299208
1931,-2.4032912,-17.941683,-2.7592237
1932,-2.3144577,-18.847067,1.2867404
1933,-3.8261235,-23.595026,8.763115
1934,-4.56401,-29.30819,2.4197419
1935,-0.2952145,-31.253254,-9.356535
1936,4.42403,-28.378876,-14.559428
1937,4.2442694,-24.634706,-10.621441
1938,-0.75493556,-24.124437,3.8641095
1939,-2.8223343,-23.839394,9.970294
1940,-14.016557,-17.503199,19.051655
1941,-15.001204,-13.727922,7.263413
1942,-15.600007,-11.739487,6.997511
1943,-12.588939,-10.616056,9.376275
1944,-7.64447,-9.931111,7.565208
1945,0.20309082,-8.242078,5.3159547
1946,7.2819576,-5.118547,5.4523454
1947,11.083554,-2.1361923,7.5149584
1948,12.920943,-0.07597212,9.71157
1949,14.669498,0.09421739,9.369097
1950,15.096019,-1.6354942,7.117451
1951,14.049159,-1.8125632,5.7520466
1952,12.836895,-1.3121641,5.215456
1953,9.349057,-0.9933205,6.3939214
1954,3.801298,-0.9669995,7.332805
1955,-1.5454643,-1.4844474,8.755937
1956,-6.489933,-2.5648067,8.511569
1957,-10.547861,-4.9052863,6.355636
1958,-10.547861,-4.9052863,6.355636
1959,-9.589536,-10.577771,-1.017847
1960,-5.064708,-16.861324,-8.522935
1961,-7.9797645,-26.910282,-0.19621146
1962,-9.766904,-34.06572,-1.3674982
1963,-8.981161,-33.823746,-0.2943172
1964,-8.329715,-29.909386,0.119940236
1965,-8.4038925,-23.170898,2.1131616
1966,-8.969196,-21.144476,1.6244274
1967,-10.701301,-21.37658,0.026620151
1968,-12.914662,-21.443878,1.8137596
1969,-11.302498,-20.037497,2.7000012
1970,-4.377071,-17.429022,2.7454648
1971,-2.420041,-16.947466,2.906083
1972,4.258626,-15.661024,3.8955152
1973,8.371888,-15.838392,1.5550356
1974,7.5215387,-18.063717,-0.090628155
1975,8.220841,-18.035004,-0.8500503
1976,6.6684976,-12.561421,-1.3459628
1977,-0.5204389,-8.670991,-2.2947168
1978,-3.1695926,-4.215256,-2.888735
1979,-5.069494,1.7039888,-6.055636
1980,-5.0623155,5.5725846,-6.282954
1981,-5.4837513,11.30519,-7.739585
1982,-3.260819,13.932808,-19.848763
1983,-1.7850457,15.1091795,-23.619253
1984,-1.4114662,14.275579,-16.79941
1985,-0.046061836,11.729018,-11.303993
1986,0.9912268,7.582556,-7.2101727
1987,0.47856453,4.6959143,-4.304389
1988,-0.9346963,0.49651068,1.0663016
1989,-1.7730815,-2.6102705,11.3524475
1990,0.7588239,-7.205088,40.201515
1991,4.5412784,-12.690634,53.352768
1992,-6.899405,-21.084356,30.372995
1993,-5.5890355,-16.959429,-23.185854
1994,-1.2125629,-20.495125,-24.419353
1995,-10.130912,-20.749062,-10.966306
1996,-10.521541,-19.15604,-4.6301117
1997,-6.2934227,-13.782957,-5.9524455
1998,-0.57547385,-9.449555,-10.523036
1999,0.42592242,-9.265009,-11.047662
2000,1.9902302,-14.166408,-4.395316
2001,-0.7046863,-15.57249,4.371986
2002,-4.846662,-19.069899,4.3073797
2003,-6.736693,-23.827429,1.1261221
2004,-4.4775696,-30.144182,-5.988338
2005,1.3890336,-30.855747,-9.567402
2006,4.5942197,-25.228725,-7.2006016
2007,4.543671,-22.940887,-5.1332026
2008,-0.7429714,-20.631815,8.720044
2009,-8.712866,-20.212473,16.584354
2010,-13.276278,-16.844574,16.172192
2011,-14.342279,-12.695419,9.833903
2012,-15.556936,-9.593125,9.385847
2013,-14.443077,-8.979964,9.817153
2014,-7.1365933,-9.193225,7.550851
2015,-0.2832504,-8.388339,7.220342
2016,-0.2832504,-8.388339,7.220342
2017,8.992228,-5.4179487,6.9113693
2018,13.435998,-3.5829527,10.75843
2019,16.842182,-3.254837,11.410174
2020,16.27927,-4.1291146,7.7736826
2021,13.351951,-3.769892,3.3637104
2022,10.8918295,-2.0018952,-0.3397808
2023,9.234201,1.0139586,-1.80359
2024,7.98126,2.137389,2.6042883
2025,3.9592242,1.0713863,9.48156
2026,-4.9926243,-1.707279,13.901402
2027,-10.545468,-5.496912,5.083552
2028,-9.227921,-11.528918,-7.476075
2029,-7.919944,-15.028721,-10.405787
2030,-10.106984,-18.744177,-1.6908283
2031,-13.604393,-29.284262,0.6541379
2032,-15.238392,-38.650665,-1.058525
2033,-14.775979,-37.24937,-1.0824531
2034,-11.527722,-29.890244,-1.1279168
2035,-8.928518,-23.302803,0.055334024
2036,-9.589536,-20.538195,0.78364944
2037,-9.316455,-20.358734,2.6473591
2038,-6.30778,-19.105791,3.7827535
2039,-3.5985062,-19.364515,5.514858
2040,0.7372885,-18.734606,6.0346985
2041,6.48425,-16.65285,5.5579286
2042,11.243874,-16.283756,2.2642083
2043,11.306386,-16.290936,-0.47168517
2044,9.648459,-16.489838,0.31166515
2045,5.7750773,-13.603197,-1.2502499
2046,3.0897322,-9.276974,-1.925624
2047,0.06909275,-4.665705,-5.3129635
2048,-1.5382859,-0.15732808,-7.6606216
2049,-4.0010986,5.0479584,-10.214063
2050,-6.159425,9.973285,-12.72204
2051,-7.5702925,13.209578,-21.228525
2052,-7.4048886,15.334404,-19.95674
2053,-6.588039,15.216857,-13.85534
2054,-5.308776,12.588939,-8.1179495
2055,-2.7146573,8.22443,-4.987241
2056,-0.7815557,4.226323,-2.1388843
2057,-1.2436695,0.84406817,0.8650054
2058,-2.0461624,-2.1071794,5.3757753
2059,-1.727618,-6.09093,20.438593
2060,6.2087765,-9.188439,23.574389
2061,9.4019985,-11.365908,25.047768
2062,-3.330211,-15.167504,-8.73141
2063,-6.8682985,-9.602696,-20.991335
2064,-1.576571,-7.518847,22.005295
2065,-3.885944,-17.64946,24.982862
2066,-12.040384,-25.5042,-29.291739
2067,-12.143276,-26.282764,-18.265312
2068,-6.937989,-15.689738,-10.707582
2069,-0.17048861,-11.351551,-9.160025
2070,6.3044896,-14.075181,-1.2526426
2071,2.8932216,-14.164015,5.9578295
2072,2.7352953,-13.92204,6.1040907
2073,-1.5358931,-18.353548,3.3684962
2074,-5.093422,-25.755745,-1.5281163
2075,-1.4090735,-29.866316,-11.062019
2076,-1.4090735,-29.866316,-11.062019
2077,2.7233312,-24.996323,-12.585649
2078,-2.297708,-21.458235,-4.8361936
2079,-7.0025954,-21.905993,10.487741
2080,-14.572289,-20.404198,23.73022
2081,-16.986946,-17.702103,17.973688
2082,-15.343677,-14.183157,8.516355
2083,-14.814264,-12.094223,9.057731
2084,-9.407681,-10.323833,5.553143
2085,-4.0417767,-8.589635,3.856931
2086,3.0825539,-5.9880385,4.293023
2087,7.940582,-3.772285,7.9247293
2088,11.99851,-2.6413772,11.95873
2089,14.796617,-2.914458,12.811472
2090,17.019548,-3.6140594,10.202697
2091,16.803896,-3.2333016,6.8778696
2092,14.731711,-1.0435698,4.1108694
2093,13.2203455,1.2726825,2.3551357
2094,10.223634,2.9279177,0.9586246
2095,5.971588,1.4380864,2.949154
2096,-0.17527425,-1.2951152,7.4192457
2097,-4.607081,-3.1013973,10.26491
2098,-11.206486,-6.78096,11.297413
2099,-12.179168,-8.230113,10.567004
2100,-8.492427,-16.600206,-8.458329
2101,-9.378967,-22.6702,-7.5646095
2102,-10.993525,-30.022148,-5.528617
2103,-15.623936,-37.508095,-5.703293
2104,-14.938691,-34.7052,-2.565405
2105,-9.417253,-23.994926,0.802792
2106,-6.7821565,-17.91297,2.759822
2107,-9.093923,-18.020647,4.281059
2108,-12.593724,-20.17658,5.43081
2109,-11.163415,-21.105892,4.9543395
2110,-8.269895,-19.105791,5.9410796
2111,-0.96819586,-18.255442,3.2629128
2112,5.3943195,-17.187046,2.4245276
2113,9.909575,-17.153547,2.312065
2114,11.5265255,-18.00629,1.902294
2115,11.7685,-18.04936,0.95383894
2116,8.661719,-15.30898,-0.21774685
2117,5.604888,-12.386446,-2.1053848
2118,0.6200402,-6.9269223,-4.685147
2119,-1.8954146,-3.5111682,-7.0926256
2120,-4.0776687,2.4394827,-9.366106
2121,-4.968696,4.7605205,-9.263215
2122,-9.285348,10.747064,-9.653543
2123,-8.806484,15.24557,-14.801403
2124,-4.8705907,16.091433,-21.32693
2125,-3.5961134,14.48884,-14.930914
2126,1.1614163,9.101101,-10.772188
2127,3.882654,5.5008,-5.3009996
2128,3.882654,5.5008,-5.3009996
2129,2.4212375,1.0115658,1.2269198
2130,1.9304097,0.23060828,2.3479571
2131,-1.0881361,-5.319544,18.840786
2132,4.8649077,-12.836895,34.29184
2133,4.3594236,-14.283656,29.635109
2134,-5.203492,-7.961818,-24.254248
2135,-5.203492,-7.961818,-24.254248
2136,-5.9557357,-10.206585,37.446777
2137,-16.93909,-28.718956,-28.271498
2138,-13.499109,-28.616066,-29.538498
2139,-12.787543,-27.535406,-16.820946
2140,-5.9916277,-15.059828,-6.826723
2141,3.5162528,-7.4156566,-4.136592
2142,4.936692,-7.9043903,-0.63200426
2143,1.3914263,-10.520344,2.1083758
2144,-1.2269198,-12.760026,2.4388845
2145,-4.5134616,-22.706093,-0.14327025
2146,-4.5134616,-22.706093,-0.14327025
2147,-4.5134616,-22.706093,-0.14327025
2148,0.5599205,-31.069008,-8.745767
2149,3.8467615,-24.179472,-8.082058
2150,0.008973085,-20.205294,1.265205
2151,0.008973085,-20.205294,1.265205
2152,0.008973085,-20.205294,1.265205
2153,-10.258031,-18.837496,17.461025
2154,-8.777472,-12.839288,8.983554
2155,-8.681759,-12.175579,7.8430743
2156,-8.607581,-9.219545,9.845867
2157,-7.555936,-8.704491,9.263813
2158,-3.3038898,-6.922137,7.811968
2159,4.0767717,-4.3328037,7.8717885
2160,5.56421,-3.9661036,8.087441
2161,11.902797,-2.8115666,11.002797
2162,11.902797,-2.8115666,11.002797
2163,16.921444,-2.914458,7.4647093
2164,16.530815,-1.7623138,5.488537
2165,14.465809,-1.0316057,2.4269204
2166,9.864112,-0.19800608,2.2232313
2167,8.462815,-0.22911277,3.001796
2168,-0.7959126,-1.2352947,8.55464
2169,-2.3383858,-1.7048861,9.196515
2170,-10.243673,-5.2022953,7.320841
2171,-6.99781,-14.159229,-8.601898
2172,-6.99781,-14.159229,-8.601898
2173,-7.196414,-17.735601,-3.6696925
2174,-8.446963,-21.582663,1.1237293
2175,-11.987443,-33.21298,-0.9699905
2176,-13.147065,-34.626236,-3.7701912
2177,-12.193525,-32.10151,-3.3317065
2178,-8.789435,-23.012972,-1.1111671
2179,-8.571689,-17.996717,3.0978081
2180,-9.364611,-18.293728,3.4594233
2181,-8.906983,-18.480667,5.0548377
2182,-8.051848,-18.468702,5.4813585
2183,-1.0112667,-18.13311,6.5398836
2184,3.6981075,-18.106789,6.029913
2185,10.59482,-18.205193,3.6343985
2186,10.59482,-18.205193,3.6343985
2187,10.59482,-18.205193,3.6343985
2188,7.5933237,-14.374583,-0.541077
2189,5.5713882,-12.566207,-0.64875406
2190,-2.3623142,-4.601099,-4.196712
2191,-1.495215,-3.8416767,-4.196712
2192,-4.5975094,2.544767,-7.7826557
2193,-4.8394837,3.7857444,-7.7682986
2194,-6.087341,11.156535,-8.091629
2195,-5.881558,13.288541,-9.375677
2196,-4.65733,15.590735,-16.638792
2197,-2.5348964,12.8982115,-14.185849
2198,-2.242673,11.750554,-13.584652
2199,0.49052864,7.565806,-8.640183
2200,1.2619148,2.5615165,-1.9710877
2201,1.0630114,1.8212371,-1.8083757
2202,-2.6548367,-4.910072,9.568001
2203,-2.6835506,-5.889933,14.064413
2204,0.5697909,-9.159725,25.596323
2205,-3.6918263,-15.3855505,7.1365933
2206,-3.6918263,-15.3855505,7.1365933
2207,-11.494223,-14.741283,-17.937197
2208,-4.583153,-13.270295,39.947575
2209,-10.775478,-28.687849,-34.70819
2210,-6.8802624,-20.408983,-14.854045
2211,-6.9281187,-18.284157,-11.651252
2212,3.8036907,-6.8599234,-6.2662044
2213,4.927121,-6.6107707,-5.061418
2214,5.47089,-7.224231,-4.4192443
2215,-2.0318055,-13.756637,5.2680984
2216,-2.745764,-14.673985,4.915755
2217,-4.9926243,-20.107187,3.0762727
2218,-4.5014977,-29.739496,-4.634897
2219,-3.1671999,-30.206394,-6.2925253
2220,3.9161534,-22.981565,-8.685647
2221,3.9161534,-22.981565,-8.685647
2222,2.1433709,-20.07608,-5.0901318
2223,-3.3230324,-20.641386,7.03101
2224,-3.3230324,-20.641386,7.03101
2225,-12.243774,-19.934605,17.19273
2226,-14.160425,-15.395122,11.055439
2227,-13.611571,-11.790035,9.900902
2228,-13.288241,-11.548061,10.492527
2229,-7.254141,-9.995717,8.652746
2230,-3.4019957,-8.972786,7.52453
2231,7.804191,-3.3146574,7.440781
2232,7.804191,-3.3146574,7.440781
2233,11.248659,-1.7240287,8.149654
2234,16.614565,-0.37537405,5.8597236
2235,16.561922,0.56859446,2.7789643
2236,16.52603,0.7719844,2.3001008
2237,15.328422,0.8102696,2.0988045
2238,10.403095,-0.20279172,5.727819
2239,5.6650076,-0.9933205,8.995518
2240,-4.983053,-2.5408785,10.317851
2241,-6.3628144,-3.0822546,9.577572
2242,-11.319247,-5.8537416,6.683752
2243,-7.071987,-13.837993,-6.3478594
2244,-7.071987,-13.837993,-6.3478594
2245,-6.06102,-17.761923,-4.342674
2246,-9.771689,-32.650066,-1.8586249
2247,-9.771689,-32.650066,-1.8586249
2248,-12.660724,-38.351265,-2.4765713
2249,-8.2049885,-25.398914,0.93708915
2250,-7.8385878,-23.825035,1.2436695
2251,-7.8385878,-23.825035,1.2436695
2252,-9.089137,-18.495024,1.6722839
2253,-9.932307,-18.614664,4.264309
2254,-8.799007,-18.21955,4.434499
2255,-2.309672,-17.280367,6.815656
2256,5.4780684,-16.573887,5.931508
2257,7.4901333,-16.001104,4.6932225
2258,10.72164,-16.446768,2.0294127
2259,8.647362,-15.261124,-1.805983
2260,8.647362,-15.261124,-1.805983
2261,8.647362,-15.261124,-1.805983
2262,0.79471624,-9.863813,-1.9304097
2263,-1.7108682,-2.8091738,-5.727221
2264,-3.2727833,2.2357936,-7.3250284
2265,-4.3818564,4.6408796,-7.5813594
2266,-5.5722857,7.0675006,-7.8113694
2267,-6.59761,13.209578,-11.922238
2268,-3.3493536,15.461224,-17.05574
2269,-3.3684962,14.653945,-15.814763
2270,-0.12502499,9.081959,-8.036594
2271,0.7468598,7.8173513,-4.9175496
2272,0.770788,2.6811578,0.49142596
2273,0.49052864,1.7614166,1.4422739
2274,0.27008986,-2.1505494,9.783653
2275,1.9591235,-6.5964136,26.736504
2276,-6.4827547,-12.280863,-2.8983064
2277,-7.917551,-11.713166,-9.588938
2278,-6.4348984,-8.237292,2.1658037
2279,-9.189635,-13.045071,26.156841
2280,-15.346069,-28.812277,-34.336704
2281,-13.980664,-28.527231,-22.424038
2282,-9.850653,-24.613173,-5.7559347
2283,0.53359944,-12.767204,-8.132307
2284,0.53359944,-12.767204,-8.132307
2285,0.53359944,-12.767204,-8.132307
2286,8.740682,-17.12244,-8.165807
2287,5.7894344,-20.207685,3.0810583
2288,-1.21017,-25.901707,1.8448663
2289,-1.21017,-25.901707,1.8448663
2290,1.7937196,-25.31726,-10.005588
2291,2.3207388,-24.684958,-9.203095
2292,2.3207388,-24.684958,-9.203095
2293,-5.59412,-23.094328,11.481959
2294,-17.600107,-18.394226,18.773787
2295,-18.177675,-17.203796,16.498213
2296,-15.875481,-12.211472,10.567004
2297,-11.067702,-10.781461,9.462418
2298,-8.890233,-10.47488,8.132905
2299,-2.7936203,-9.209974,5.799903
2300,5.9138613,-4.95075,5.898009
2301,5.9138613,-4.95075,5.898009
2302,11.881262,-1.1084751,10.526027
2303,12.484851,-0.80907315,10.998011
2304,15.011971,-1.556232,10.104591
2305,14.453845,-3.012863,5.6392846
2306,13.323236,-2.7397819,4.1925244
2307,9.490533,0.0077766734,0.90329057
2308,9.490533,0.0077766734,0.90329057
2309,4.057629,0.7576275,5.715855
2310,1.654936,-0.13339986,7.359425
2311,-5.3353963,-3.3050864,9.210872
2312,-9.726226,-7.669595,3.1360931
2313,-5.9318075,-13.445271,-6.8485575
2314,-5.035695,-14.429917,-9.2895355
2315,-4.3268213,-17.05275,-9.258429
2316,-7.673184,-29.816065,0.6975078
2317,-13.709976,-42.667915,-3.1522448
2318,-14.850157,-43.408195,-2.9676983
2319,-10.059127,-26.047968,1.0184451
2320,-8.262417,-21.72653,1.8568304
2321,-10.713265,-17.610876,1.1117653
2322,-11.9611225,-18.075682,0.8554341
2323,-13.582858,-18.870996,3.7061832
2324,-12.183954,-18.152252,4.0534415
2325,-0.11306087,-16.640884,4.4727836
2326,1.2236297,-16.523338,4.8032923
2327,8.673683,-16.367804,2.6665018
2328,9.576674,-16.283756,2.566003
2329,9.576674,-16.283756,2.566003
2330,11.562717,-16.25265,-0.42622152
2331,3.7917266,-10.400404,-1.3914263
2332,2.7759733,-9.262616,-1.9734805
2333,0.18155542,-5.726922,-4.8122654
2334,-0.6113662,-4.438088,-5.8615184
2335,-4.6357946,3.1339993,-8.908479
2336,-7.3235326,9.568299,-8.1012
2337,-4.7916274,14.191532,-20.55315
2338,-3.6343985,14.634803,-18.97688
2339,-3.6439698,14.383257,-17.022242
2340,-0.45074797,10.404292,-9.392427
2341,0.49052864,8.447262,-6.896414
2342,1.0079765,3.7857444,-2.2561326
2343,0.19591236,1.4596218,-0.026021946
2344,-1.3683954,-2.4332016,7.5556364
2345,-1.7300107,-5.9066825,19.157238
2346,-1.7300107,-5.9066825,19.157238
2347,2.9386854,-15.529419,39.844685
2348,-9.520144,-18.413368,-16.631613
2349,-6.422934,-16.980965,-12.436995
2350,-8.818449,-25.822744,-19.240387
2351,-8.574081,-25.094429,-15.96581
2352,-6.4492555,-18.885353,-9.538689
2353,1.1638091,-6.728318,-8.120343
2354,2.0285153,-6.1100726,-8.786445
2355,1.8176479,-6.895816,-10.76501
2356,-0.64965135,-10.165907,-9.08824
2357,-3.6248271,-16.973787,1.6962122
2358,-4.3244286,-18.113966,3.2820554
2359,-4.3244286,-18.113966,3.2820554
2360,-5.962914,-29.193333,0.99930257
2361,2.9892337,-28.187151,-10.312168
2362,3.3747773,-23.899214,-7.7826557
2363,1.340878,-22.811676,-1.9734805
2364,0.41156548,-22.77339,0.7573284
2365,-10.106984,-21.73371,20.041086
2366,-12.658331,-20.071295,19.454247
2367,-14.627325,-13.57209,9.6326065
2368,-14.138591,-12.024831,8.039585
2369,-9.855438,-10.6663065,7.98455
2370,-8.528319,-10.556236,7.9223366
2371,1.8272192,-6.3903317,5.2226343
2372,3.0753753,-5.8010993,5.272884
2373,10.853544,-1.6187445,9.656535
2374,11.845369,-1.4270196,10.451849
2375,15.809678,-0.8880363,9.742677
2376,16.305592,-1.1467602,9.400204
2377,16.243378,-2.6608188,7.3785677
2378,14.813367,-2.7493532,4.8032923
2379,7.921439,-1.3241283,2.9395826
2380,6.716354,-1.1587243,3.205485
2381,-0.73818576,-1.6546369,6.818049
2382,-3.260819,-2.2271197,8.240881
2383,-3.260819,-2.2271197,8.240881
2384,-10.11177,-7.451549,4.534997
2385,-5.7783675,-13.473985,-8.855837
2386,-5.7687964,-14.458631,-8.352746
2387,-5.8911295,-15.610775,-6.908378
2388,-11.225927,-37.01936,-4.924728
2389,-11.688042,-38.008793,-4.7165527
2390,-10.222138,-27.286552,0.78364944
2391,-9.867402,-25.686354,1.3489537
2392,-9.606286,-20.571695,1.6339988
2393,-11.458032,-20.449661,1.4518452
2394,-12.454642,-19.481764,3.900301
2395,-12.454642,-19.481764,3.900301
2396,-7.6492558,-17.790636,3.112165
2397,2.1361923,-16.581064,5.4116673
2398,7.614859,-16.2024,5.3590255
2399,11.097912,-16.327126,3.4307094
2400,10.462916,-17.680567,-1.5855441
2401,10.678569,-17.136797,-1.0657034
2402,5.3126645,-10.15155,-2.6898317
2403,4.3666024,-9.133404,-3.0011978
2404,4.3666024,-9.133404,-3.0011978
2405,-1.1120644,-0.5069793,-8.621041
2406,-4.8251266,7.568199,-10.628619
2407,-5.272884,8.559725,-10.465608
2408,-3.5482569,14.102998,-25.118956
2409,-3.7854455,15.145072,-26.163422
2410,-3.7208393,15.056538,-11.699408
2411,-3.3062828,13.894523,-10.276276
2412,-0.27367908,6.3631134,-3.2718859
2413,0.02841477,1.9794625,-1.518545
2414,-0.16091733,1.1243275,-0.9242278
2415,-3.5745778,-5.226224,8.085049
2416,-3.9915273,-6.2611194,12.909577
2417,3.2333016,-12.647563,49.795536
2418,5.9500527,-17.586946,56.84539
2419,-15.868302,-26.94378,-25.406393
2420,-12.378072,-23.0704,-33.862328
2421,-3.2249267,-22.356441,-18.157635
2422,-4.0513477,-20.725134,-17.158632
2423,-4.0513477,-20.725134,-17.158632
2424,-4.9519463,-7.2409806,-11.716157
2425,2.7376883,-3.5279179,-11.919547
2426,2.239383,-4.059723,-11.665908
2427,-3.694219,-15.09572,-1.1685947
2428,-3.8835511,-17.132011,2.661716
2429,-5.239384,-24.105295,11.242378
2430,-5.241777,-27.420551,8.501998
2431,-0.84855473,-34.106396,-7.3250284
2432,2.740081,-33.59852,-13.2514515
2433,5.4900327,-24.972395,-10.060922
2434,5.4900327,-24.972395,-10.060922
2435,-1.8882362,-22.785355,8.018049
2436,-6.971489,-23.068007,16.14587
2437,-15.247963,-16.762918,12.559926
2438,-14.455042,-14.774782,10.075877
2439,-14.282459,-13.356736,9.153444
2440,-8.260024,-11.215159,9.81476
2441,-7.143772,-11.013864,9.318848
2442,-7.143772,-11.013864,9.318848
2443,3.5210385,-5.791528,6.638288
2444,6.0696936,-4.1482573,6.710073
2445,12.626327,-0.91196454,10.864013
2446,16.296019,-0.6867401,8.006085
2447,15.668502,-2.2175484,6.492027
2448,12.810575,-1.07019,6.02752
2449,11.9769745,-1.1347961,5.8597236
2450,11.126625,-1.1300105,5.5651073
2451,3.8084764,-0.5766702,7.7904325
2452,-5.002196,-2.562414,7.3112698
2453,-5.002196,-2.562414,7.3112698
2454,-10.974382,-6.905387,1.9381863
2455,-10.880763,-8.311769,1.0591232
2456,-4.8729835,-14.683557,-10.283454
2457,-4.8155556,-15.442978,-8.91805
2458,-8.688937,-26.22055,-0.7280163
2459,-10.118948,-31.191042,-0.785444
2460,-11.10838,-35.495728,-0.4142574
2461,-9.733404,-31.404303,-0.04755735
2462,-9.618548,-21.827028,0.6445666
2463,-10.056734,-19.177576,0.7573284
2464,-10.643574,-19.038792,0.8243274
2465,-11.264213,-18.547667,2.4340987
2466,-9.575179,-18.32962,2.6162524
2467,-1.0881361,-17.812172,5.703891
2468,2.035694,-17.92972,6.702894
2469,9.691829,-17.184654,4.024728
2470,9.842577,-16.945072,3.4737802
2471,11.299208,-14.939887,-0.8811569
2472,11.299208,-14.939887,-0.8811569
2473,4.1724844,-8.206185,0.08165507
2474,3.2766714,-6.9655066,-0.040378883
2475,2.457429,-5.956932,-0.6128617
2476,-2.71705,1.090529,-5.669793
2477,-5.756832,7.893922,-7.2412796
2478,-6.005985,8.780164,-7.509575
2479,-3.152843,12.926926,-15.079269
2480,-2.6042883,13.159328,-16.521544
2481,-1.4090735,10.356436,-14.58575
2482,-1.0088738,9.434301,-13.898411
2483,1.8822541,5.5965133,-6.3382883
2484,1.8966111,4.6528435,-3.9595232
2485,-0.046061836,-0.018544376,3.9696927
2486,-0.36221352,-0.92153585,6.9113693
2487,0.9385847,-8.886644,30.032616
2488,-2.951846,-13.763815,17.118553
2489,-5.3760743,-14.219049,6.849156
2490,-7.467401,-7.7871423,-0.7256235
2491,-17.267206,-19.498514,52.569416
2492,-17.267206,-19.498514,52.569416
2493,-3.8093736,-28.033712,-26.618357
2494,-3.8093736,-28.033712,-26.618357
2495,-1.6007984,-11.023435,-7.9241314
2496,0.025722843,-9.662816,-8.182856
2497,5.9285173,-10.805388,-2.0838494
2498,4.3666024,-11.349157,-0.43579283
2499,-3.016452,-13.6968155,5.2441697
2500,-3.0068808,-14.781961,5.510072
2501,-3.0068808,-14.781961,5.510072
2502,-4.2020955,-28.87449,0.23748764
2503,1.721935,-28.273293,-10.484751
2504,2.3111675,-26.735605,-11.057234
2505,0.8138588,-22.131216,-5.5860443
2506,-0.5706882,-21.77678,-2.091028
2507,-8.985947,-20.914467,18.673288
2508,-8.985947,-20.914467,18.673288
2509,-11.134701,-14.836996,12.6676035
2510,-11.070095,-14.012968,10.952547
2511,-10.356136,-9.528519,7.728219
2512,-9.747761,-9.226724,7.4479594
2513,-8.950054,-8.991928,7.3881392
2514,-0.4746762,-5.98086,6.2548385
2515,8.302197,-2.30369,9.208479
2516,9.296415,-1.719243,10.015758
2517,12.892229,-1.5586249,11.707184
2518,13.874184,-2.8115666,9.235099
2519,11.287244,-3.4704902,3.73729
2520,10.563714,-3.1516466,3.1217363
2521,8.005188,0.25932217,2.2040887
2522,7.899904,0.61405814,3.1265218
2523,1.5756737,-0.11425728,11.481959
2524,0.32303107,-0.37298122,12.198311
2525,-8.133204,-3.3074791,5.6967125
2526,-9.04816,-4.203292,4.333701
2527,-4.8969116,-13.660924,-8.065308
2528,-3.8141594,-14.341084,-10.096814
2529,-4.698008,-22.696522,-0.9556335
2530,-4.698008,-22.696522,-0.9556335
2531,-4.698008,-22.696522,-0.9556335
2532,-12.356536,-39.551266,-2.632404
2533,-9.84826,-24.538694,1.5669997
2534,-9.522537,-23.0034,2.1777678
2535,-11.518151,-20.097616,3.6607196
2536,-11.518151,-20.097616,3.6607196
2537,-12.553046,-19.953749,4.240381
2538,-6.0514483,-17.57259,5.469095
2539,-4.458427,-17.230118,5.651249
2540,7.2915287,-16.171293,4.9974103
2541,7.7994056,-16.290936,3.9170506
2542,11.869298,-16.552052,0.06011967
2543,12.0176525,-17.04557,-0.22971097
2544,7.550253,-13.162619,-2.3712873
2545,6.318846,-12.101401,-2.577369
2546,-2.2474587,-4.4955153,-4.2302113
2547,-2.7505496,-3.566203,-4.7620163
2548,-5.5651073,2.3817558,-7.9887376
2549,-5.1412787,4.743771,-8.458329
2550,-7.745268,12.268002,-9.323035
2551,-7.8074813,13.506586,-10.578071
2552,-3.1289146,16.457834,-20.46671
2553,-3.1289146,16.457834,-20.46671
2554,2.3255246,8.157432,-11.737693
2555,2.8836503,7.2326055,-9.83809
2556,2.3542383,2.0440688,-0.9508479
2557,1.8990039,1.2607185,-0.19381863
2558,-1.3923237,-4.4524446,12.37538
2559,-1.579263,-6.4360948,23.804398
2560,-1.579263,-6.4360948,23.804398
2561,-4.0585265,-15.486049,11.486745
2562,-3.3062828,-11.63181,15.765112
2563,-10.329815,-25.693531,4.4392843
2564,-10.82812,-30.256943,-31.136305
2565,-9.594321,-29.269903,-26.79094
2566,-4.5855455,-17.908184,-7.952845
2567,-0.75493556,-12.954144,-5.660222
2568,6.8578296,-6.862316,-4.776373
2569,6.8578296,-6.862316,-4.776373
2570,1.4751751,-12.221043,-2.0240288
2571,0.61764735,-13.13869,-0.76630145
2572,-0.79830545,-15.433407,1.1356934
2573,-6.25753,-25.077679,0.52253264
2574,-0.16570297,-29.150263,-7.157531
2575,-0.16570297,-29.150263,-7.157531
2576,1.2451651,-23.056042,-7.025626
2577,0.38524446,-21.055643,-3.4301112
2578,-2.4320052,-20.528624,3.2126634
2579,-9.6783695,-20.492731,16.24906
2580,-14.517255,-14.705391,10.0061865
2581,-14.342279,-13.782957,9.12473
2582,-10.854442,-10.053145,8.013264
2583,-9.903594,-10.000504,7.9678
2584,-0.6161518,-8.601599,6.113662
2585,0.88354975,-8.096115,5.8357954
2586,7.425527,-5.3051867,6.2309103
2587,9.507282,-4.019045,6.956833
2588,13.711472,-0.4232305,10.320244
2589,13.711472,-0.4232305,10.320244
2590,12.81536,-2.1649063,6.4106708
2591,11.39492,-2.8881369,5.3015976
2592,11.39492,-2.8881369,5.3015976
2593,8.031509,0.04875376,4.6546383
2594,1.2786646,-0.15493527,8.703294
2595,-2.1182463,-0.9909277,9.891331
2596,-3.1671999,-1.4294125,9.982258
2597,-8.224132,-5.046463,4.5134616
2598,-6.9882383,-10.347761,-4.371388
2599,-4.9519463,-13.639388,-9.785448
2600,-5.718547,-19.544277,-2.1508484
2601,-7.170093,-24.706491,1.8951155
2602,-13.1231365,-39.43162,-1.4464613
2603,-13.027124,-38.3393,-0.5554339
2604,-10.8018,-26.632416,0.7716853
2605,-9.496216,-20.34677,2.3862424
2606,-10.30828,-20.147865,2.7741787
2607,-13.482359,-20.375483,1.8185452
2608,-12.684652,-20.758635,3.7013974
2609,-11.635399,-20.298615,4.1685963
2610,-0.1896312,-15.792929,4.686044
2611,-0.1896312,-15.792929,4.686044
2612,9.313165,-15.471692,1.7635103
2613,10.649856,-16.235899,0.16570297
2614,10.6307125,-16.432411,-0.26799613
2615,10.6307125,-16.432411,-0.26799613
2616,6.6038914,-13.445271,0.7118647
2617,-0.63529444,-8.132008,-2.6419754
2618,-2.882155,-3.3457642,-5.5334024
2619,-2.3431716,1.591227,-7.7204423
2620,-2.0054846,2.4729822,-7.7300134
2621,-4.4871407,10.835598,-8.558827
2622,-4.1757746,11.992528,-10.34836
2623,-1.7898313,16.129719,-19.910976
2624,-1.7898313,16.129719,-19.910976
2625,0.30388847,11.908779,-11.526825
2626,1.9184456,9.661919,-8.25464
2627,1.3866407,3.3951163,-0.054735817
2628,0.92662054,2.5591238,0.61106706
2629,-1.7682959,-5.453841,17.281563
2630,-1.7682959,-5.453841,17.281563
2631,3.3795629,-11.0760765,14.4236355
2632,3.3795629,-11.0760765,14.4236355
2633,3.3795629,-11.0760765,14.4236355
2634,-2.4822545,-12.700205,2.8558338
2635,-12.620046,-23.510979,-14.33211
2636,-13.051053,-26.09104,-28.997122
2637,-9.496216,-19.764416,-15.235102
2638,-7.7668033,-14.302798,-7.8233337
2639,-4.8681974,-11.437693,-7.128817
2640,3.7244284,-12.582957,-4.505685
2641,4.1964126,-13.881063,-4.110271
2642,3.1399815,-16.80599,6.693323
2643,2.9219356,-17.702103,5.816653
2644,-2.992524,-31.018759,-1.6310078
2645,2.847758,-34.276585,-9.102596
2646,8.105986,-26.95096,-11.124532
2647,8.105986,-26.95096,-11.124532
2648,1.5038891,-21.736101,-1.2020943
2649,0.16241284,-21.815065,2.9874392
2650,-12.749258,-21.276081,19.969301
2651,-14.32553,-20.715563,19.856539
2652,-14.900406,-14.020146,9.457631
2653,-15.075381,-12.443874,8.652746
2654,-11.630613,-10.240085,8.157132
2655,-10.483255,-10.149158,7.550851
2656,0.73489565,-6.824031,5.691927
2657,2.030908,-6.0454664,6.0009003
2658,10.05823,-1.3528421,8.470891
2659,10.853544,-0.94307125,9.577572
2660,14.992828,-0.7752745,9.1510515
2661,15.253945,-1.3193426,8.32463
2662,15.253945,-1.3193426,8.32463
2663,11.871691,-1.666601,3.888337
2664,10.3695965,-0.18843478,2.7646074
2665,5.837291,0.87278205,4.4895334
2666,4.6037908,0.7648059,4.9902315
2667,-4.65733,-1.2975081,9.069695
2668,-5.773582,-1.6283158,8.901898
2669,-11.606686,-6.139086,5.076373
2670,-11.443674,-7.4709907,4.2906303
2671,-4.6788654,-15.617953,-10.707582
2672,-3.275176,-17.412271,-10.156635
2673,-8.135597,-33.593735,-0.83090764
2674,-9.110672,-36.59284,-1.8490537
2675,-9.110672,-36.59284,-1.8490537
2676,-9.484252,-32.249866,0.9610174
2677,-7.6588273,-19.718952,3.789932
2678,-7.8385878,-19.424335,3.0762727
2679,-14.7305155,-21.942184,3.1480572
2680,-14.723337,-22.069004,3.6439698
2681,-5.0141597,-18.05654,5.7783675
2682,-5.0141597,-18.05654,5.7783675
2683,0.45702913,-17.344973,5.785546
2684,7.3417783,-16.085152,5.4957156
2685,13.229917,-16.475481,-1.3220345
2686,13.150953,-16.2024,-1.5831513
2687,7.7033935,-12.551551,-3.2479577
2688,1.7745771,-9.679565,-1.8514465
2689,-0.73100734,-8.517551,-1.9184456
2690,-0.73100734,-8.517551,-1.9184456
2691,-5.191528,0.8536395,-7.8089767
2692,-7.646863,9.221041,-7.0375905
2693,-7.565507,9.987641,-7.806584
2694,-7.565507,9.987641,-7.806584
2695,-3.071487,16.040884,-21.401106
2696,-1.3492528,12.390335,-11.634501
2697,-0.48185465,11.063215,-10.647761
2698,1.7099708,4.327121,-3.6338003
2699,1.5661024,3.5027933,-3.295814
2700,-0.5371887,-2.0617158,1.4808581
2701,-1.8571295,-4.586742,6.1806607
2702,1.911267,-11.464013,29.160732
2703,1.911267,-11.464013,29.160732
2704,2.1867409,-18.64338,33.09902
2705,-8.947661,-20.47598,-6.920342
2706,4.4575295,-16.233507,16.208382
2707,3.0681968,-21.280867,13.949259
2708,-9.865009,-22.830818,-20.605793
2709,-10.885549,-20.981466,-18.634405
2710,-10.885549,-20.981466,-18.634405
2711,-3.411567,-7.693523,-10.721939
2712,-4.075276,-11.030613,-5.305785
2713,-4.132704,-13.040285,3.856931
2714,-3.9170506,-13.263117,5.838188
2715,-3.112165,-14.164015,8.468498
2716,-5.799903,-23.652454,2.134697
2717,-2.245066,-32.66203,-10.803295
2718,3.37717,-32.75535,-14.626726
2719,5.200202,-24.241686,-7.1766734
2720,1.0175478,-23.791536,7.591529
2721,1.0175478,-23.791536,7.591529
2722,-11.419746,-20.190937,23.483461
2723,-12.354143,-19.084255,21.119053
2724,-13.613964,-11.883355,9.148658
2725,-13.218849,-11.5265255,9.793225
2726,-4.6932225,-10.15155,6.897012
2727,-4.6932225,-10.15155,6.897012
2728,-0.11545369,-8.49123,5.857331
2729,6.7740808,-4.7159543,6.3915286
2730,14.142479,0.37686956,12.394523
2731,14.142479,0.37686956,12.394523
2732,14.808581,-2.3204398,7.5125656
2733,14.279169,-2.5049863,6.793822
2734,8.853145,-1.3360924,1.7970098
2735,8.436495,-0.8282157,1.3944174
2736,6.136693,0.62123656,5.378168
2737,5.006084,0.31944183,6.8515487
2738,-4.2717867,-3.226123,13.223336
2739,-5.936593,-3.9828532,12.74208
2740,-13.211671,-8.45773,2.0916262
2741,-13.211671,-8.45773,2.0916262
2742,-5.6300125,-17.081463,-11.998809
2743,-5.0452666,-17.69253,-12.154343
2744,-10.399207,-34.139896,-4.196712
2745,-10.399207,-34.139896,-4.196712
2746,-10.528719,-35.440693,0.23748764
2747,-8.729615,-24.33052,1.3992031
2748,-8.729615,-24.33052,1.3992031
2749,-8.633903,-19.611275,1.6866409
2750,-8.930911,-19.917856,2.02702
2751,-9.812367,-18.770496,5.8860445
2752,-8.660223,-18.497416,6.1471615
2753,1.9543378,-17.507984,8.142476
2754,3.4393835,-17.016857,8.130512
2755,10.537393,-16.700706,3.6032917
2756,11.524133,-16.957037,1.7057835
2757,10.115658,-14.06561,-4.6899323
2758,8.395817,-12.539587,-2.85045
2759,2.644069,-5.1735816,-5.892625
2760,2.644069,-5.1735816,-5.892625
2761,-4.549653,1.4500505,-5.406284
2762,-4.549653,1.4500505,-5.406284
2763,-4.92084,6.3248286,-8.225926
2764,-4.8083773,12.579368,-16.500008
2765,-4.3579283,13.2311125,-19.580467
2766,-4.154239,13.750954,-23.26003
2767,-2.9398818,13.513765,-16.140486
2768,-0.8222337,7.0268226,-6.3741803
2769,-0.59940207,6.001498,-5.365606
2770,-0.59940207,6.001498,-5.365606
2771,-0.67118675,-0.8258229,-0.37088752
2772,-2.0676978,-7.92114,16.438093
2773,-1.591227,-8.690134,21.164516
2774,6.989734,-16.271791,33.249767
2775,4.179663,-18.332012,29.402706
2776,-8.629117,-15.627524,-15.867405
2777,-8.629117,-15.627524,-15.867405
2778,-8.629117,-15.627524,-15.867405
2779,-7.383353,-22.99383,-26.235207
2780,-7.5009007,-11.749357,-12.231212
2781,-7.5009007,-11.749357,-12.231212
2782,-7.5009007,-11.749357,-12.231212
2783,-0.10109676,-5.8250275,-10.166206
2784,-0.10109676,-5.8250275,-10.166206
2785,-2.6955147,-15.910177,1.372882
2786,-3.9481573,-22.382763,8.142476
2787,-4.0944185,-24.136402,7.253842
2788,-0.73818576,-34.06572,-6.5608206
2789,-0.73818576,-34.06572,-6.5608206
2790,7.0232334,-23.841785,-11.900404
2791,6.1968126,-23.19722,-10.137492
2792,-6.983453,-23.465515,21.15016
2793,-9.352647,-23.170898,24.396023
2794,-14.390137,-17.057535,12.624533
2795,-14.380565,-16.08276,10.193126
2796,-13.66212,-12.743276,11.069796
2797,-13.66212,-12.743276,11.069796
2798,-2.3001008,-9.255438,7.050153
2799,-2.3001008,-9.255438,7.050153
2800,8.045866,-4.05733,6.942476
2801,10.767403,-2.6198416,7.689934
2802,15.941583,0.7576275,9.654142
2803,17.424534,1.3372887,8.485249
2804,15.752251,0.93738824,3.6511483
2805,15.752251,0.93738824,3.6511483
2806,14.3365965,1.0139586,2.6856444
2807,8.999406,0.6332007,4.6618166
2808,-0.59700924,-1.5323038,12.277274
2809,-2.2594228,-1.9564316,12.749258
2810,-11.10838,-4.924429,7.6947193
2811,-13.151851,-6.270691,4.2164526
2812,-7.7763743,-14.219049,-10.163814
2813,-5.61087,-15.50549,-8.5014
2814,-5.7352967,-16.655243,-6.1680984
2815,-7.821838,-22.619951,-1.1183455
2816,-11.879766,-33.952957,0.5297111
2817,-8.878269,-34.453655,0.33559337
2818,-8.042277,-31.81138,0.40289152
2819,-8.042277,-31.81138,0.40289152
2820,-6.8276205,-20.088045,0.59671015
2821,-10.600503,-19.838892,1.8975084
2822,-10.531112,-19.64956,2.7095726
2823,-4.3387856,-18.571594,6.1830535
2824,-3.3852458,-18.590736,5.9937215
2825,8.498708,-15.8766775,4.304987
2826,9.543175,-16.056438,4.228417
2827,10.958829,-16.315163,0.5129613
2828,10.489536,-13.931612,-1.3794622
2829,5.5857453,-10.225728,-1.463211
2830,2.6153553,-9.090333,-1.6908283
2831,0.4426722,0.30029923,-5.636294
2832,-0.12023934,1.6992031,-6.2231336
2833,-6.0921264,8.483154,-7.5813594
2834,-6.233602,9.359825,-7.4904323
2835,-5.1795635,13.611871,-17.683258
2836,-5.1795635,13.611871,-17.683258
2837,-5.035695,13.5353,-16.758732
2838,-2.2187448,8.167003,-9.931411
2839,-2.2187448,8.167003,-9.931411
2840,-2.2187448,8.167003,-9.931411
2841,0.53599226,1.646561,-2.6347969
2842,-0.9705887,-4.7805605,10.698609
2843,-0.8102696,-5.7747784,16.28256
2844,6.091229,-11.811571,27.7379
2845,6.8745794,-14.760426,27.792934
2846,-12.87877,-16.801205,-15.000306
2847,-11.280962,-15.1244335,-10.916057
2848,-12.7444725,-29.039894,-23.616861
2849,-10.047163,-28.004997,-29.25106
2850,-3.1671999,-16.784454,-17.208881
2851,-3.9744785,-14.626128,-14.573786
2852,3.6287155,-8.381161,-11.085947
2853,4.107878,-8.448159,-11.193923
2854,2.8310082,-13.052249,-6.812366
2855,2.3327029,-16.401304,-3.8036907
2856,-2.4942186,-22.38037,9.177372
2857,-4.7099724,-25.587948,5.215456
2858,-2.9853454,-29.102108,-8.949157
2859,-1.5406786,-28.42434,-10.947164
2860,-1.5406786,-28.42434,-10.947164
2861,0.485743,-24.030819,-8.755338
2862,-13.120744,-25.319653,22.237698
2863,-19.456638,-19.841286,18.855442
2864,-18.594326,-18.205193,15.12563
2865,-15.271892,-11.888141,12.006586
2866,-14.414064,-11.306087,11.486745
2867,-7.4769726,-8.474481,4.9519463
2868,-3.885944,-7.2266235,4.6091747
2869,6.4241304,-4.476373,6.3795643
2870,9.480962,-3.8321054,7.522137
2871,16.835003,-1.6594225,13.784154
2872,19.101305,-2.0114665,14.711074
2873,20.071295,-4.924429,10.705788
2874,15.987046,-3.592524,8.166703
2875,11.093125,-0.5168497,2.0006988
2876,11.093125,-0.5168497,2.0006988
2877,4.939085,1.8978075,-0.9723833
2878,4.939085,1.8978075,-0.9723833
2879,-7.2732835,-1.5804594,9.24467
2880,-9.012267,-2.385345,8.568997
2881,-14.505291,-7.5403824,-2.4765713
2882,-13.781761,-9.281759,-4.2541394
2883,-3.4211383,-17.328224,-8.673683
2884,-3.222534,-17.409878,-7.274779
2885,-3.8548372,-18.24587,-2.8408787
2886,-12.940983,-40.02325,-0.8285148
2887,-15.070595,-39.920357,1.0830513
2888,-12.107384,-31.696526,1.8975084
2889,-7.440781,-23.039293,3.0185459
2890,-10.99831,-18.147467,-0.7375876
2891,-11.050952,-18.205193,-0.62721866
2892,-6.302994,-17.261225,3.9696927
2893,-5.1675997,-17.273188,5.0141597
2894,4.9989057,-15.198611,7.64447
2895,4.9989057,-15.198611,7.64447
2896,10.436595,-14.29562,-2.5004997
2897,10.436595,-14.29562,-2.5004997
2898,7.518847,-11.251052,-4.7189455
2899,6.4408803,-10.412667,-4.3115673
2900,6.4408803,-10.412667,-4.3115673
2901,-2.3024936,-1.9277177,-5.305785
2902,-7.515258,7.2711897,-7.983952
2903,-7.860123,8.312965,-5.8208404
2904,-6.7462645,13.575978,-17.39582
2905,-6.3867426,13.966607,-18.687048
2906,-3.979264,13.489837,-12.010774
2907,-3.330211,12.943675,-10.980663
2908,1.1685947,6.562017,-5.2193446
2909,1.4608182,5.757131,-4.4482574
2910,1.3097713,0.1468595,0.36909288
2911,1.0031909,-0.8593224,1.3489537
2912,-0.6041877,-8.994321,27.617958
2913,4.833502,-12.676277,26.848965
2914,4.833502,-12.676277,26.848965
2915,-4.681258,-18.859032,-11.780764
2916,-4.681258,-18.859032,-11.780764
2917,-6.183353,-19.718952,18.958334
2918,-6.571289,-26.404799,39.41338
2919,-10.715658,-23.374588,-18.854546
2920,-11.894123,-20.912073,-15.632609
2921,-3.0188448,-7.9043903,-14.810974
2922,-1.7994026,-6.8048887,-15.187245
2923,-1.7994026,-6.8048887,-15.187245
2924,0.56500524,-8.690134,-13.627723
2925,-4.4201417,-19.05315,4.173382
2926,-5.306383,-20.772991,6.767501
2927,-7.596614,-29.720352,10.748858
2928,0.47856453,-33.337402,-6.129813
2929,4.4694934,-30.7382,-9.802198
2930,4.4694934,-30.7382,-9.802198
2931,0.770788,-23.13022,-5.2073803
2932,-11.32164,-21.51327,25.519453
2933,-12.7444725,-20.334805,25.708786
2934,-16.330715,-13.965111,9.6015
2935,-16.289738,-13.581661,9.527323
2936,-12.710973,-9.976575,9.757333
2937,-11.441281,-9.430413,9.512965
2938,-2.1541386,-6.574878,7.603493
2939,6.4121666,-3.8560338,4.4081774
2940,8.055737,-3.3457642,4.3265224
2941,8.055737,-3.3457642,4.3265224
2942,17.247166,0.6786643,11.36202
2943,18.183657,-1.7048861,8.775079
2944,16.145271,-1.678565,7.3570323
2945,14.633606,-1.0749756,6.0825553
2946,9.9960165,1.6103697,0.7190432
2947,8.584849,1.9220347,0.12233306
2948,1.4177474,0.26889345,2.5971098
2949,-0.017347964,-0.1788635,3.5838501
2950,-9.213564,-3.7770705,8.935398
2951,-10.883156,-4.423731,8.597711
2952,-11.994621,-13.4763775,-4.505685
2953,-10.317851,-15.1962185,-7.394719
2954,-10.317851,-15.1962185,-7.394719
2955,-13.750654,-34.71956,-1.7557336
2956,-17.935701,-47.06353,0.92243314
2957,-11.175379,-36.616768,2.8845477
2958,-9.405289,-25.482664,2.4628127
2959,-8.511569,-19.932213,0.8961121
2960,-9.925129,-19.570597,1.6890336
2961,-11.247463,-20.15265,1.6507485
2962,-8.384749,-19.14647,2.4891338
2963,-3.7423747,-16.760527,6.913762
2964,0.552742,-17.239689,6.0418773
2965,6.690033,-15.438192,4.06062
2966,9.629316,-15.711273,0.64217377
2967,9.68465,-15.651453,-2.1460629
2968,6.558428,-14.480166,-2.1388843
2969,3.702893,-9.710672,-1.9950159
2970,-0.587438,-6.3951178,-2.4143581
2971,-1.2077773,-0.4423731,-5.621937
2972,-1.2077773,-0.4423731,-5.621937
2973,-2.8773692,9.55155,-8.779266
2974,-2.8773692,9.55155,-8.779266
2975,-3.4884362,14.055141,-21.137596
2976,-3.9963129,14.361721,-20.742184
2977,-4.1255255,13.695919,-10.750653
2978,-3.7591243,13.159328,-9.4019985
2979,-0.8102696,5.340182,-2.7592237
2980,-0.49860442,4.4635115,-2.359323
2981,-0.9562318,-2.2941186,2.3862424
2982,-1.2915261,-3.429513,3.5910287
2983,-1.5430715,-9.3562355,31.34777
2984,7.758428,-15.812071,22.934906
2985,8.381459,-17.486448,22.738396
2986,-8.059027,-17.917755,-15.632609
2987,-6.288637,-15.816856,-13.56551
2988,-3.1767712,-16.815561,3.4713874
2989,-7.7739816,-20.12633,-11.054841
2990,-7.7739816,-20.12633,-11.054841
2991,-6.7869425,-11.528918,-10.877771
2992,-3.3062828,-9.530911,-10.7889385
2993,-3.3062828,-9.530911,-10.7889385
2994,-2.594717,-12.877573,-7.670193
2995,-2.5181468,-14.09911,-7.07109
2996,-4.995017,-25.398914,5.66082
2997,-4.8969116,-26.749962,5.6727843
2998,-4.8969116,-26.749962,5.6727843
2999,3.51386,-30.086754,-11.574681
3000,3.51386,-30.086754,-11.574681
3001,3.51386,-30.086754,-11.574681
3002,-11.621042,-22.878675,28.224241
3003,-16.124634,-16.085152,15.077475
3004,-17.50918,-13.176975,10.30828
3005,-16.033707,-10.824532,10.844871
3006,-13.889737,-9.547662,9.060123
3007,-4.7482576,-7.8924265,7.1222367
3008,2.7376883,-6.201299,5.081159
3009,9.440284,-3.8560338,4.8439703
3010,13.620246,-1.6115661,7.941479
3011,16.34627,0.5132605,10.339387
3012,18.58625,-0.94785684,10.859227
3013,16.736897,-3.1157541,8.72483
3014,12.844073,-2.6126633,5.9506507
3015,8.711968,-0.8042875,2.5516462
3016,5.4924254,0.70977104,1.346561
3017,2.656033,0.7576275,3.2102706
3018,-4.2332025,-0.83060855,8.657532
3019,-9.374182,-2.9410782,9.088838
3020,-13.709976,-6.6011996,3.056831
3021,-10.495219,-13.188939,-6.02423
3022,-4.942375,-17.24926,-10.302597
3023,-5.5220366,-19.714167,-3.9978085
3024,-10.614861,-30.656843,-0.23688944
3025,-14.097913,-41.450867,1.6052849
3026,-11.2088785,-37.098324,1.724926
3027,-8.782257,-25.801208,1.3704891
3028,-7.342675,-19.75006,1.7826529
3029,-10.226924,-19.01965,0.005084748
3030,-13.448859,-19.77638,0.4962116
3031,-13.072588,-19.920248,2.0006988
3032,-9.148957,-18.657736,4.21406
3033,-0.014955142,-17.591732,6.058627
3034,4.4838505,-16.693527,6.475277
3035,8.7215395,-15.98914,3.056831
3036,11.78525,-14.271691,-2.7735806
3037,11.8740835,-14.221442,-2.2489543
3038,-2.8630123,2.1517458,-5.265107
3039,-2.8630123,2.1517458,-5.265107
3040,-2.8630123,2.1517458,-5.265107
3041,-2.8630123,2.1517458,-5.265107
3042,-5.8743796,7.093822,-6.3741803
3043,-1.1862419,12.256038,-18.854546
3044,-1.1862419,12.256038,-18.854546
3045,-1.1862419,12.256038,-18.854546
3046,-1.1862419,12.256038,-18.854546
3047,0.81625164,8.088039,-8.939586
3048,1.055833,7.299904,-7.557431
3049,1.0342976,4.482654,-3.1235309
3050,-1.3444673,-1.6426728,7.6779695
3051,-1.3444673,-1.6426728,7.6779695
3052,-2.1302104,-6.824031,28.705498
3053,3.106482,-17.92972,19.298414
3054,3.106482,-17.92972,19.298414
3055,-9.11785,-19.798214,-15.692729
3056,-5.5507503,-15.816856,-1.7123637
3057,-1.9839491,-9.432806,-13.447963
3058,-1.9839491,-9.432806,-13.447963
3059,-1.9839491,-9.432806,-13.447963
3060,-1.9839491,-9.432806,-13.447963
3061,-3.4450665,-12.436696,-8.197212
3062,-3.4450665,-12.436696,-8.197212
3063,-3.4450665,-12.436696,-8.197212
3064,-5.9653068,-20.052153,3.559922
3065,-8.787043,-27.540491,7.656434
3066,-8.787043,-27.540491,7.656434
3067,1.7051853,-25.115963,-6.02423
3068,1.7051853,-25.115963,-6.02423
3069,1.7051853,-25.115963,-6.02423
3070,1.7051853,-25.115963,-6.02423
3071,-2.228316,-24.421448,8.271988
3072,-16.304394,-17.670996,17.971294
3073,-16.304394,-17.670996,17.971294
3074,-15.750755,-12.978072,10.480563
3075,-8.873484,-8.218149,8.238488
3076,-8.873484,-8.218149,8.238488
3077,5.5019965,-4.450052,5.871688
3078,5.5019965,-4.450052,5.871688
3079,7.0950184,-4.0357943,6.0921264
3080,12.851253,-2.1936202,9.81476
3081,18.234205,-0.30358937,13.185051
3082,19.970797,-2.4044876,12.761222
3083,19.161125,-4.0477586,10.370493
3084,12.851253,-2.9096723,2.7813573
3085,10.692926,-1.5753746,0.8171489
3086,4.3259244,0.750449,2.4340987
3087,-0.4435695,-0.04007978,4.2092743
3088,-0.4435695,-0.04007978,4.2092743
3089,-4.235595,-16.235899,-10.273883
3090,-4.235595,-16.235899,-10.273883
3091,-4.235595,-16.235899,-10.273883
3092,-4.235595,-16.235899,-10.273883
3093,-16.143776,-40.734814,-2.0694926
3094,-16.143776,-40.734814,-2.0694926
3095,-16.143776,-40.734814,-2.0694926
3096,-12.789936,-32.817562,-0.22971097
3097,-13.420146,-18.803997,2.0294127
3098,-13.420146,-18.803997,2.0294127
3099,-13.420146,-18.803997,2.0294127
3100,-13.420146,-18.803997,2.0294127
3101,-12.4833555,-18.554844,3.0161529
3102,8.59472,-16.827526,4.156632
3103,8.59472,-16.827526,4.156632
3104,8.59472,-16.827526,4.156632
3105,8.59472,-16.827526,4.156632
3106,-8.097312,-4.1315074,-2.3808584
3107,-8.097312,-4.1315074,-2.3808584
3108,-8.097312,-4.1315074,-2.3808584
3109,-8.097312,-4.1315074,-2.3808584
3110,0.042771704,-3.6858442,-3.8180475
3111,-1.4401802,-1.8388842,-4.682754
3112,-4.5206404,6.0541406,-6.704689
3113,-4.5206404,6.0541406,-6.704689
3114,-4.415356,12.787843,-17.458035
3115,-4.415356,12.787843,-17.458035
3116,-2.7218359,12.01167,-15.194424
3117,-2.7218359,12.01167,-15.194424
3118,0.9553344,6.6720867,-6.376573
3119,-3.4474592,-6.8503523,23.40689
3120,-3.4474592,-6.8503523,23.40689
3121,-3.4474592,-6.8503523,23.40689
3122,-3.4474592,-6.8503523,23.40689
3123,-1.6223338,-9.851849,23.38027
3124,3.9257247,-12.896716,27.39752
3125,-5.773582,-29.823244,-24.582365
3126,-5.773582,-29.823244,-24.582365
3127,-5.773582,-29.823244,-24.582365
3128,-5.773582,-29.823244,-24.582365
3129,-0.30957142,-9.650852,-15.747764
3130,-0.30957142,-9.650852,-15.747764
3131,-0.30957142,-9.650852,-15.747764
3132,-0.30957142,-9.650852,-15.747764
3133,0.32063824,-8.474481,-8.359924
3134,0.32063824,-8.474481,-8.359924
3135,-4.278965,-12.781561,-3.216851
3136,-7.1629148,-20.330019,2.0892332
3137,-8.708079,-28.462626,7.1581287
3138,-1.7898313,-31.248468,-2.4765713
3139,0.933799,-29.253155,-4.6037908
3140,0.933799,-29.253155,-4.6037908
3141,0.933799,-29.253155,-4.6037908
3142,-3.62722,-22.284657,3.437888
3143,-12.4115715,-20.47598,17.901903
3144,-13.570893,-16.35584,16.133905
3145,-11.309676,-11.9718895,10.142876
3146,-10.217353,-10.053145,7.927122
3147,-8.391928,-7.95464,8.169097
3148,-6.0251274,-5.889933,6.9041905
3149,-2.2642083,-4.0645084,5.881259
3150,1.1015958,-3.0008986,5.8764734
3151,9.650852,-1.5634105,7.77129
3152,9.650852,-1.5634105,7.77129
3153,17.084156,-1.9325033,9.433703
3154,17.084156,-1.9325033,9.433703
3155,14.324633,-3.4704902,9.517751
3156,5.818148,-0.30358937,2.1418753
3157,5.818148,-0.30358937,2.1418753
3158,-5.5076795,-12.216257,-5.4206405
3159,-5.5076795,-12.216257,-5.4206405
3160,-5.5076795,-12.216257,-5.4206405
3161,-5.5076795,-12.216257,-5.4206405
3162,-5.5076795,-12.216257,-5.4206405
3163,-5.3183475,-23.024937,1.6483557
3164,-5.3183475,-23.024937,1.6483557
3165,-9.558429,-31.035507,2.5468607
3166,-18.448364,-45.935314,-0.8213364
3167,-12.049955,-17.98236,-0.38524446
3168,-12.049955,-17.98236,-0.38524446
3169,-12.049955,-17.98236,-0.38524446
3170,-12.049955,-17.98236,-0.38524446
3171,1.8846469,-15.332909,5.5746784
3172,1.8846469,-15.332909,5.5746784
3173,1.8846469,-15.332909,5.5746784
3174,1.8846469,-15.332909,5.5746784
3175,11.466705,-14.305191,-1.8777676
3176,11.466705,-14.305191,-1.8777676
3177,11.466705,-14.305191,-1.8777676
3178,11.466705,-14.305191,-1.8777676
3179,-2.376671,-2.6413772,-5.9500527
3180,-2.376671,-2.6413772,-5.9500527
3181,-2.376671,-2.6413772,-5.9500527
3182,-2.376671,-2.6413772,-5.9500527
3183,-4.391428,14.778671,-23.686253
3184,-4.391428,14.778671,-23.686253
3185,-4.391428,14.778671,-23.686253
3186,-4.391428,14.778671,-23.686253
3187,2.4044876,4.4922256,-1.0274183
3188,2.4044876,4.4922256,-1.0274183
3189,2.4044876,4.4922256,-1.0274183
3190,2.4044876,4.4922256,-1.0274183
3191,2.335096,-10.94178,25.67768
3192,2.335096,-10.94178,25.67768
3193,2.335096,-10.94178,25.67768
3194,2.335096,-10.94178,25.67768
3195,-14.26571,-27.973892,-21.755543
3196,-14.26571,-27.973892,-21.755543
3197,-14.26571,-27.973892,-21.755543
3198,-14.26571,-27.973892,-21.755543
3199,-7.268498,-23.76731,-23.904299
3200,-3.99392,-12.872787,-11.756835
3201,-3.99392,-12.872787,-11.756835
3202,3.3795629,-6.9798636,-13.239488
3203,3.3795629,-6.9798636,-13.239488
3204,-5.38086,-29.032715,11.149058
3205,-5.38086,-29.032715,11.149058
3206,-5.38086,-29.032715,11.149058
3207,-5.38086,-29.032715,11.149058
3208,-0.85094756,-32.14219,-2.766402
3209,2.3159533,-30.09154,-7.6917286
3210,-14.050056,-22.11686,20.47957
3211,-14.050056,-22.11686,20.47957
3212,-14.050056,-22.11686,20.47957
3213,-14.050056,-22.11686,20.47957
3214,-13.1686,-10.649556,11.12513
3215,-13.1686,-10.649556,11.12513
3216,-13.1686,-10.649556,11.12513
3217,-0.35503507,-6.416952,4.7027936
3218,-0.35503507,-6.416952,4.7027936
3219,-0.35503507,-6.416952,4.7027936
3220,12.128021,-0.4016951,8.300702
3221,12.128021,-0.4016951,8.300702
3222,14.068301,-4.6298127,9.335598
3223,14.068301,-4.6298127,9.335598
3224,14.068301,-4.6298127,9.335598
3225,14.068301,-4.6298127,9.335598
3226,7.885547,-2.2701905,3.9744785
3227,-2.475076,0.20668006,6.9448686
3228,-2.475076,0.20668006,6.9448686
3229,-2.475076,0.20668006,6.9448686
3230,-5.95095,-14.017754,-11.109876
3231,-5.95095,-14.017754,-11.109876
3232,-5.95095,-14.017754,-11.109876
3233,-5.95095,-14.017754,-11.109876
3234,-2.3913271,-18.365513,-6.6855464
3235,-12.93859,-41.76014,2.8701909
3236,-12.93859,-41.76014,2.8701909
3237,-12.93859,-41.76014,2.8701909
3238,-8.356036,-21.728924,2.5058835
3239,-8.356036,-21.728924,2.5058835
3240,-12.195918,-18.897316,0.53688955
3241,-0.7573284,-16.664814,6.1567326
3242,-0.7573284,-16.664814,6.1567326
3243,-0.7573284,-16.664814,6.1567326
3244,-0.7573284,-16.664814,6.1567326
3245,10.817652,-16.087545,1.1907284
3246,10.817652,-16.087545,1.1907284
3247,7.2290163,-12.048759,-2.6970103
3248,7.2290163,-12.048759,-2.6970103
3249,7.2290163,-12.048759,-2.6970103
3250,-4.1183467,2.312364,-5.7224355
3251,-4.1183467,2.312364,-5.7224355
3252,-4.1183467,2.312364,-5.7224355
3253,-4.1183467,2.312364,-5.7224355
3254,-2.652444,15.264713,-22.428823
3255,-2.652444,15.264713,-22.428823
3256,-2.652444,15.264713,-22.428823
3257,-1.2077773,15.224035,-22.031017
3258,1.4201403,10.220045,-13.01217
3259,2.5674987,8.262715,-9.773185
3260,2.4861426,4.6408796,-2.141277
3261,3.2910285,-11.277373,34.440495
3262,3.2910285,-11.277373,34.440495
3263,3.2910285,-11.277373,34.440495
3264,3.2910285,-11.277373,34.440495
3265,-12.519248,-25.4037,-6.539285
3266,-12.519248,-25.4037,-6.539285
3267,-12.519248,-25.4037,-6.539285
3268,-12.519248,-25.4037,-6.539285
3269,-4.834698,-17.371593,-14.137993
3270,-4.834698,-17.371593,-14.137993
3271,0.6798607,-8.076973,-9.809377
3272,0.6798607,-8.076973,-9.809377
3273,0.6798607,-8.076973,-9.809377
3274,0.6798607,-8.076973,-9.809377
3275,-7.0337024,-24.217758,7.7880397
3276,-7.0337024,-24.217758,7.7880397
3277,-7.0337024,-24.217758,7.7880397
3278,-1.7443677,-32.954254,-4.249354
3279,-1.7443677,-32.954254,-4.249354
3280,-2.5995028,-23.592632,11.826825
3281,-2.5995028,-23.592632,11.826825
3282,-2.5995028,-23.592632,11.826825
3283,-2.5995028,-23.592632,11.826825
3284,-12.852448,-16.38216,14.919548
3285,-12.852448,-16.38216,14.919548
3286,-7.251748,-8.012366,7.878967
3287,-5.5722857,-7.8780694,7.1485577
3288,-3.7615173,-7.6193457,6.59761
3289,-1.8954146,-7.2912297,6.2548385
3290,1.6788642,-6.7594247,5.2202415
3291,10.189836,-2.8402805,6.604789
3292,13.644174,-0.44715872,10.025628
3293,13.644174,-0.44715872,10.025628
3294,11.143375,-4.3926244,8.013264
3295,11.143375,-4.3926244,8.013264
3296,4.0648074,-0.2653042,5.9434724
3297,4.0648074,-0.2653042,5.9434724
3298,4.0648074,-0.2653042,5.9434724
3299,4.0648074,-0.2653042,5.9434724
3300,-5.2680984,-1.1563315,3.3924243
3301,-7.852945,-6.009574,1.1907284
3302,-7.852945,-6.009574,1.1907284
3303,-7.852945,-6.009574,1.1907284
3304,-0.30000013,-13.9986105,-7.880761
3305,-0.30000013,-13.9986105,-7.880761
3306,-7.392925,-35.25615,1.9046868
3307,-8.791828,-38.240894,-0.64875406
3308,-8.791828,-38.240894,-0.64875406
3309,-13.896915,-42.785164,-3.3149567
3310,-11.386247,-28.685457,0.5201398
3311,-12.826128,-19.781466,1.3657036
3312,-12.826128,-19.781466,1.3657036
3313,-12.826128,-19.781466,1.3657036
3314,7.1428747,-15.459728,8.248059
3315,7.1428747,-15.459728,8.248059
3316,7.1428747,-15.459728,8.248059
3317,7.1428747,-15.459728,8.248059
3318,6.244669,-11.595918,-5.0255256
3319,6.244669,-11.595918,-5.0255256
3320,6.244669,-11.595918,-5.0255256
3321,-1.1048858,-4.165007,-5.049454
3322,-1.1048858,-4.165007,-5.049454
3323,-5.9916277,2.43709,-5.9548383
3324,-5.9916277,2.43709,-5.9548383
3325,-5.9916277,2.43709,-5.9548383
3326,-5.325825,9.57787,-12.9954195
3327,-5.028517,10.552946,-15.951453
3328,-5.028517,10.552946,-15.951453
3329,0.66071814,7.6495547,-6.647261
3330,0.66071814,7.6495547,-6.647261
3331,0.66071814,7.6495547,-6.647261
3332,-0.19202402,1.0139586,0.26859435
3333,-2.8558338,-3.6690943,9.235099
3334,-2.8558338,-3.6690943,9.235099
3335,3.025126,-11.909677,33.26891
3336,-0.99930257,-10.896317,4.106084
3337,-0.99930257,-10.896317,4.106084
3338,-0.99930257,-10.896317,4.106084
3339,-0.99930257,-10.896317,4.106084
3340,-5.4023952,-9.497412,-10.889736
3341,-5.4023952,-9.497412,-10.889736
3342,-5.4023952,-9.497412,-10.889736
3343,-5.4023952,-9.497412,-10.889736
3344,0.23898315,-6.1845493,-11.414362
3345,-0.32632118,-7.5475607,-11.045269
3346,-1.8257236,-15.605989,-4.634897
3347,-4.664509,-18.37269,10.286446
3348,-6.343672,-27.389444,5.148158
3349,-6.343672,-27.389444,5.148158
3350,0.5937191,-34.28855,-7.648658
3351,2.6632116,-33.737602,-10.070493
3352,6.2470617,-27.918856,-12.6167555
3353,-5.8286166,-22.564917,20.311773
3354,-5.8286166,-22.564917,20.311773
3355,-13.863117,-15.737595,10.899905
3356,-13.863117,-15.737595,10.899905
3357,-13.863117,-15.737595,10.899905
3358,-1.3588241,-7.839784,7.986943
3359,-1.3588241,-7.839784,7.986943
3360,-1.3588241,-7.839784,7.986943
3361,-1.3588241,-7.839784,7.986943
3362,11.746964,-2.5552354,7.481459
3363,11.746964,-2.5552354,7.481459
3364,11.746964,-2.5552354,7.481459
3365,17.297417,1.2750753,6.0251274
3366,17.297417,1.2750753,6.0251274
3367,-1.21017,-1.3791631,10.638788
3368,-1.21017,-1.3791631,10.638788
3369,-1.21017,-1.3791631,10.638788
3370,-1.21017,-1.3791631,10.638788
3371,-1.21017,-1.3791631,10.638788
3372,-9.680762,-4.2705903,4.7075796
3373,-5.7783675,-12.451053,-8.367103
3374,-5.7783675,-12.451053,-8.367103
3375,-5.7783675,-12.451053,-8.367103
3376,-4.9064827,-18.717855,-1.7147565
3377,-10.902298,-35.237007,-3.1498518
3378,-10.902298,-35.237007,-3.1498518
3379,-10.902298,-35.237007,-3.1498518
3380,-9.666406,-26.155645,2.0557337
3381,-13.405788,-22.260729,2.1107686
3382,-13.405788,-22.260729,2.1107686
3383,-12.960126,-21.894028,3.0352955
3384,-12.960126,-21.894028,3.0352955
3385,-8.078169,-19.498514,5.5507503
3386,-3.5123646,-18.880568,7.0983086
3387,3.2934213,-17.987146,6.0227346
3388,10.177871,-16.930716,2.731108
3389,10.177871,-16.930716,2.731108
3390,10.177871,-16.930716,2.731108
3391,3.4704902,-10.5945215,0.66400826
3392,3.4704902,-10.5945215,0.66400826
3393,3.4704902,-10.5945215,0.66400826
3394,3.4704902,-10.5945215,0.66400826
3395,-0.77407813,-1.4772689,-6.2494545
3396,-0.77407813,-1.4772689,-6.2494545
3397,-4.8729835,13.8347025,-19.336102
3398,-4.8729835,13.8347025,-19.336102
3399,-4.8729835,13.8347025,-19.336102
3400,-4.7075796,12.340085,-17.577974
3401,-0.26171497,0.6523433,-1.7315062
3402,-0.26171497,0.6523433,-1.7315062
3403,-0.26171497,0.6523433,-1.7315062
3404,-0.26171497,0.6523433,-1.7315062
3405,-1.2795619,-1.0124631,0.19680966
3406,-4.228417,-7.2409806,18.601503
3407,5.8277197,-14.853745,23.706291
3408,5.8277197,-14.853745,23.706291
3409,5.8277197,-14.853745,23.706291
3410,-3.0619156,-16.530516,-13.917554
3411,-4.482355,-12.072687,-24.208487
3412,-3.8620157,-20.734705,5.1003013
3413,-3.8620157,-20.734705,5.1003013
3414,-1.7419748,-9.416057,-8.000702
3415,-1.7419748,-9.416057,-8.000702
3416,-1.7419748,-9.416057,-8.000702
3417,-1.7419748,-9.416057,-8.000702
3418,-0.31435707,-9.638887,4.0295134
3419,-0.31435707,-9.638887,4.0295134
3420,-4.6262236,-22.99383,-2.158027
3421,-4.6262236,-22.99383,-2.158027
3422,-4.6262236,-22.99383,-2.158027
3423,-4.005884,-24.486053,-4.2708893
3424,1.2523435,-28.989645,-11.500504
3425,6.666105,-29.713175,-11.287244
3426,5.9380884,-25.281368,0.012263216
3427,-2.417648,-21.867706,18.97987
3428,-2.417648,-21.867706,18.97987
3429,-10.051949,-17.230118,18.136698
3430,-13.75544,-10.35494,8.312666
3431,-13.75544,-10.35494,8.312666
3432,-10.57179,-8.709276,9.060123
3433,3.0346973,-6.009574,6.8395844
3434,3.0346973,-6.009574,6.8395844
3435,14.4948225,-1.4413766,7.2490563
3436,14.4948225,-1.4413766,7.2490563
3437,14.4948225,-1.4413766,7.2490563
3438,14.4948225,-1.4413766,7.2490563
3439,11.926725,1.1410773,2.3144577
3440,11.926725,1.1410773,2.3144577
3441,11.926725,1.1410773,2.3144577
3442,-4.0585265,-2.6895328,6.683752
3443,-4.0585265,-2.6895328,6.683752
3444,-4.0585265,-2.6895328,6.683752
3445,-4.0585265,-2.6895328,6.683752
3446,-4.0585265,-2.6895328,6.683752
3447,-4.0585265,-2.6895328,6.683752
3448,-3.0116663,-15.55574,-3.4995031
3449,-3.4426737,-20.207685,1.617249
3450,-5.47418,-31.246077,-0.31106696
3451,-6.3747787,-32.6381,-1.4033905
3452,-11.499008,-36.561733,-1.5424733
3453,-11.851052,-18.664913,3.598207
3454,-11.851052,-18.664913,3.598207
3455,-11.077273,-16.904394,4.1518464
3456,-11.077273,-16.904394,4.1518464
3457,-10.193424,-16.724634,4.3480577
3458,15.69243,-15.89582,2.4269204
3459,15.69243,-15.89582,2.4269204
3460,15.69243,-15.89582,2.4269204
3461,11.988938,-16.77249,1.3154542
3462,11.988938,-16.77249,1.3154542
3463,11.988938,-16.77249,1.3154542
3464,-0.52522457,-9.748958,-4.009773
3465,-0.52522457,-9.748958,-4.009773
3466,-4.892126,-2.6006992,-8.566006
3467,-4.892126,-2.6006992,-8.566006
3468,-5.747261,5.220541,-9.71815
3469,-5.747261,5.220541,-9.71815
3470,-6.6239314,14.08864,-14.772689
3471,-6.6239314,14.08864,-14.772689
3472,-6.0107703,14.934204,-13.380963
3473,0.0065802624,-0.4543372,4.575675
3474,0.0065802624,-0.4543372,4.575675
3475,0.0065802624,-0.4543372,4.575675
3476,0.0065802624,-0.4543372,4.575675
3477,0.0065802624,-0.4543372,4.575675
3478,7.1356964,-24.809383,20.898613
3479,7.1356964,-24.809383,20.898613
3480,7.1356964,-24.809383,20.898613
3481,3.8324046,-27.082865,16.636997
3482,-4.88734,-23.221148,-4.29721
3483,-4.88734,-23.221148,-4.29721
3484,-9.714262,-21.484556,-2.079064
3485,3.731607,1.8020946,-18.47618
3486,3.731607,1.8020946,-18.47618
3487,3.731607,1.8020946,-18.47618
3488,3.731607,1.8020946,-18.47618
3489,-9.019445,-14.336298,-4.3761735
3490,-9.019445,-14.336298,-4.3761735
3491,-6.9858456,-22.78057,13.784154
3492,-6.9858456,-22.78057,13.784154
3493,-6.9858456,-22.78057,13.784154
3494,-6.9858456,-22.78057,13.784154
3495,4.0887356,-22.260729,-12.885051
3496,4.0887356,-22.260729,-12.885051
3497,-0.42681974,-19.191933,10.133305
3498,-0.42681974,-19.191933,10.133305
3499,-3.3445678,-19.235004,14.7661085
3500,-21.885653,-21.055643,11.723933
