,ax,ay,az
501,-14.514862,-51.37809,-7.2580295
502,-12.550355,-29.466413,4.86072
503,-3.1576285,-13.670495,0.41964126
504,-3.1576285,-13.670495,0.41964126
505,-3.1576285,-13.670495,0.41964126
506,3.4417763,-12.345768,9.155837
507,3.4417763,-12.345768,9.155837
508,10.051051,-14.537594,4.453641
509,10.051051,-14.537594,4.453641
510,10.051051,-14.537594,4.453641
511,12.417852,-14.693426,1.0710872
512,-0.012562319,-7.0803623,-1.7700906
513,-0.012562319,-7.0803623,-1.7700906
514,-0.012562319,-7.0803623,-1.7700906
515,-0.012562319,-7.0803623,-1.7700906
516,-5.452645,1.4380864,-8.285747
517,-5.452645,1.4380864,-8.285747
518,-9.326026,10.885847,-9.097811
519,-9.326026,10.885847,-9.097811
520,-6.9281187,12.943675,-13.946268
521,-6.9281187,12.943675,-13.946268
522,2.629712,4.3558345,-4.002594
523,2.629712,4.3558345,-4.002594
524,2.629712,4.3558345,-4.002594
525,2.629712,4.3558345,-4.002594
526,-0.6376872,-6.3065834,15.429818
527,-0.6376872,-6.3065834,15.429818
528,3.353242,-13.090834,50.04469
529,3.353242,-13.090834,50.04469
530,-3.2392836,-26.924639,-35.601612
531,-3.2392836,-26.924639,-35.601612
532,-8.667402,-16.293327,-17.937197
533,-8.667402,-16.293327,-17.937197
534,-12.287145,-14.118252,-3.3149567
535,-12.287145,-14.118252,-3.3149567
536,0.60807604,-6.4384875,-13.016955
537,0.60807604,-6.4384875,-13.016955
538,-1.5646069,-10.158729,-9.732507
539,-1.5646069,-10.158729,-9.732507
540,-4.4225345,-14.470595,-3.5856447
541,-4.4225345,-14.470595,-3.5856447
542,-3.9625144,-25.719852,14.521742
543,3.391527,-32.079678,3.6583266
544,9.861719,-32.736206,-8.079665
545,9.861719,-32.736206,-8.079665
546,7.8233337,-23.994926,8.866006
547,7.8233337,-23.994926,8.866006
548,-8.293822,-16.724634,16.031013
549,-8.293822,-16.724634,16.031013
550,-8.293822,-16.724634,16.031013
551,-17.250456,-11.732308,12.013764
552,-12.653545,-8.5681,10.492527
553,4.2394834,-2.536093,3.0472596
554,4.2394834,-2.536093,3.0472596
555,4.2394834,-2.536093,3.0472596
556,13.8550415,2.6069803,5.756832
557,13.8550415,2.6069803,5.756832
558,9.761221,0.92303133,4.6091747
559,9.761221,0.92303133,4.6091747
560,9.761221,0.92303133,4.6091747
561,9.761221,0.92303133,4.6091747
562,0.04995017,-5.1879387,3.828217
563,0.04995017,-5.1879387,3.828217
564,0.04995017,-5.1879387,3.828217
565,0.04995017,-5.1879387,3.828217
566,-3.5147574,-19.1034,-3.772584
567,-3.5147574,-19.1034,-3.772584
568,-3.5147574,-19.1034,-3.772584
569,-3.5147574,-19.1034,-3.772584
570,-3.9744785,-22.98396,-2.6252255
571,-9.453145,-31.318161,-4.412066
572,-12.440285,-30.920353,-2.524428
573,-12.440285,-30.920353,-2.524428
574,-9.49143,-22.52663,1.6722839
575,-9.49143,-22.52663,1.6722839
576,-9.49143,-22.52663,1.6722839
577,-8.346464,-21.170797,2.6425736
578,-4.343571,-19.843678,3.7157545
579,-4.343571,-19.843678,3.7157545
580,7.265208,-17.886349,5.421239
581,7.265208,-17.886349,5.421239
582,7.1213393,-11.399407,-2.5845475
583,7.1213393,-11.399407,-2.5845475
584,7.1213393,-11.399407,-2.5845475
585,7.1213393,-11.399407,-2.5845475
586,7.1213393,-11.399407,-2.5845475
587,-2.5492535,2.5591238,-6.460322
588,-2.5492535,2.5591238,-6.460322
589,-2.5492535,2.5591238,-6.460322
590,-2.5492535,2.5591238,-6.460322
591,-6.4923263,9.922736,-5.9093747
592,-4.4057846,10.924132,-17.690437
593,-4.4057846,10.924132,-17.690437
594,0.29162526,9.014959,-7.830512
595,0.29162526,9.014959,-7.830512
596,-0.21834506,-6.538986,15.9999075
597,-0.21834506,-6.538986,15.9999075
598,-0.21834506,-6.538986,15.9999075
599,-0.21834506,-6.538986,15.9999075
600,-4.721936,-17.38595,-16.773088
601,-4.721936,-17.38595,-16.773088
602,-4.721936,-17.38595,-16.773088
603,-4.721936,-17.38595,-16.773088
604,-14.871692,-21.38645,26.106592
605,-14.871692,-21.38645,26.106592
606,1.9160527,-9.849456,-17.827127
607,1.9160527,-9.849456,-17.827127
608,1.9160527,-9.849456,-17.827127
609,2.1505494,-8.9057865,-14.624333
610,1.7578273,-10.177871,-10.479965
611,1.7578273,-10.177871,-10.479965
612,-3.2153554,-17.201405,-2.225026
613,-3.2153554,-17.201405,-2.225026
614,-3.2153554,-17.201405,-2.225026
615,-4.1925244,-26.036005,4.9639106
616,2.644069,-31.337303,-2.0814567
617,2.835794,-30.791142,-3.0729825
618,-0.06281159,-23.247469,5.191229
619,-0.06281159,-23.247469,5.191229
620,-0.3382853,-22.2368,7.9366937
621,-11.6186495,-10.745568,7.7258263
622,-11.6186495,-10.745568,7.7258263
623,-11.6186495,-10.745568,7.7258263
624,-11.6186495,-10.745568,7.7258263
625,-8.859127,-5.7460647,4.788935
626,-8.859127,-5.7460647,4.788935
627,10.120443,2.269293,9.646963
628,10.120443,2.269293,9.646963
629,10.120443,2.269293,9.646963
630,9.459426,-4.1578283,5.7520466
631,9.459426,-4.1578283,5.7520466
632,9.459426,-4.1578283,5.7520466
633,9.459426,-4.1578283,5.7520466
634,3.0059834,0.09900304,-5.4589257
635,2.7711878,0.65712893,-5.456533
636,2.2585254,1.6633109,-3.8180475
637,-0.6903293,1.3444673,8.298309
638,-9.771689,-3.429513,10.042377
639,-9.771689,-3.429513,10.042377
640,-9.771689,-3.429513,10.042377
641,3.144767,-21.942184,-6.309574
642,3.144767,-21.942184,-6.309574
643,3.144767,-21.942184,-6.309574
644,3.144767,-21.942184,-6.309574
645,1.8200407,-39.287754,-1.9471594
646,-8.933304,-29.073393,5.486144
647,-8.933304,-29.073393,5.486144
648,-11.987443,-24.759134,5.313562
649,-11.987443,-24.759134,5.313562
650,-14.12902,-24.689743,2.9682965
651,-3.6320057,-18.688843,1.5526428
652,-3.6320057,-18.688843,1.5526428
653,-3.6320057,-18.688843,1.5526428
654,-3.6320057,-18.688843,1.5526428
655,12.360424,-14.173586,-0.61764735
656,12.360424,-14.173586,-0.61764735
657,12.360424,-14.173586,-0.61764735
658,12.360424,-14.173586,-0.61764735
659,-2.3503501,-0.51445687,-3.758227
660,-2.3503501,-0.51445687,-3.758227
661,-2.3503501,-0.51445687,-3.758227
662,-2.3503501,-0.51445687,-3.758227
663,-5.028517,12.924532,-10.389038
664,-5.028517,12.924532,-10.389038
665,-5.028517,12.924532,-10.389038
666,-5.028517,12.924532,-10.389038
667,2.359024,6.815955,-8.328817
668,2.359024,6.815955,-8.328817
669,2.359024,6.815955,-8.328817
670,2.1577277,3.735196,-5.4182477
671,0.81864446,-1.0917253,1.998306
672,7.804191,-18.456738,31.192238
673,7.804191,-18.456738,31.192238
674,7.804191,-18.456738,31.192238
675,7.804191,-18.456738,31.192238
676,-6.369993,-18.073288,-36.530926
677,-5.7281184,-15.883856,-34.48536
678,-11.079666,-23.269302,-10.173385
679,-11.079666,-23.269302,-10.173385
680,-11.079666,-23.269302,-10.173385
681,-2.3742783,-12.336197,-7.004091
682,-0.97776717,-7.8349986,-15.568004
683,-0.97776717,-7.8349986,-15.568004
684,-0.97776717,-7.8349986,-15.568004
685,-1.6510476,-11.928819,-11.522039
686,-1.8882362,-28.218258,3.0906296
687,-1.8882362,-28.218258,3.0906296
688,2.7879374,-33.99872,-2.5606194
689,2.7879374,-33.99872,-2.5606194
690,2.7879374,-33.99872,-2.5606194
691,2.7879374,-33.99872,-2.5606194
692,-16.162918,-10.096216,10.909476
693,-16.162918,-10.096216,10.909476
694,-16.162918,-10.096216,10.909476
695,-16.162918,-10.096216,10.909476
696,9.298808,-0.9813564,3.0738797
697,9.298808,-0.9813564,3.0738797
698,9.298808,-0.9813564,3.0738797
699,9.298808,-0.9813564,3.0738797
700,14.137693,4.3582273,8.516355
701,14.137693,4.3582273,8.516355
702,14.137693,4.3582273,8.516355
703,11.878869,-2.4499512,9.263813
704,11.878869,-2.4499512,9.263813
705,11.878869,-2.4499512,9.263813
706,-7.663613,-1.7120646,2.161018
707,-7.663613,-1.7120646,2.161018
708,-7.663613,-1.7120646,2.161018
709,-7.663613,-1.7120646,2.161018
710,-7.515258,-5.0682974,-2.181955
711,-7.515258,-5.0682974,-2.181955
712,-0.46031925,-15.558133,-4.7428737
713,-0.46031925,-15.558133,-4.7428737
714,0.13130614,-16.928324,-4.368995
715,-9.534501,-40.020855,-0.33020952
716,-9.534501,-40.020855,-0.33020952
717,-9.534501,-40.020855,-0.33020952
718,-9.534501,-40.020855,-0.33020952
719,-5.675476,-19.0364,4.4895334
720,-5.675476,-19.0364,4.4895334
721,-5.675476,-19.0364,4.4895334
722,-5.675476,-19.0364,4.4895334
723,0.6511469,-17.749958,5.131408
724,0.6511469,-17.749958,5.131408
725,11.802299,-15.677774,1.087837
726,11.802299,-15.677774,1.087837
727,10.724033,-15.01915,-1.532902
728,8.094022,-11.365908,-2.754438
729,3.9472601,-5.762814,-1.5137594
730,-2.6377878,6.1450677,-8.172985
731,-2.6377878,6.1450677,-8.172985
732,-2.6377878,6.1450677,-8.172985
733,-2.6377878,6.1450677,-8.172985
734,-3.5745778,13.21197,-24.78366
735,-3.5745778,13.21197,-24.78366
736,-0.8365906,4.6025944,-4.3091745
737,-0.8365906,4.6025944,-4.3091745
738,-0.8365906,4.6025944,-4.3091745
739,-0.8365906,4.6025944,-4.3091745
740,0.12891331,-4.502694,8.899506
741,0.12891331,-4.502694,8.899506
742,0.12891331,-4.502694,8.899506
743,7.3728848,-15.234802,7.622935
744,7.3728848,-15.234802,7.622935
745,7.3728848,-15.234802,7.622935
746,-13.501502,-28.72135,-10.401002
747,-13.501502,-28.72135,-10.401002
748,-13.501502,-28.72135,-10.401002
749,-13.501502,-28.72135,-10.401002
750,-5.328218,-14.223835,-9.282357
751,-5.328218,-14.223835,-9.282357
752,-5.328218,-14.223835,-9.282357
753,0.104985096,-10.110573,-7.928917
754,2.6105695,-13.481163,-4.141378
755,2.198705,-34.27898,-5.2289157
756,2.198705,-34.27898,-5.2289157
757,2.198705,-34.27898,-5.2289157
758,2.198705,-34.27898,-5.2289157
759,3.7100716,-37.093536,-8.613862
760,3.7100716,-37.093536,-8.613862
761,3.7100716,-37.093536,-8.613862
762,-18.44597,-17.620447,24.743282
763,-18.44597,-17.620447,24.743282
764,-20.536999,-15.160326,15.616458
765,2.4068804,-6.047859,5.311169
766,2.4068804,-6.047859,5.311169
767,2.4068804,-6.047859,5.311169
768,2.4068804,-6.047859,5.311169
769,17.738293,4.0516467,11.577672
770,17.738293,4.0516467,11.577672
771,17.738293,4.0516467,11.577672
772,15.340386,-0.0017946169,3.844967
773,15.340386,-0.0017946169,3.844967
774,9.286844,1.4141582,0.22073789
775,9.286844,1.4141582,0.22073789
776,-2.2642083,-0.22432712,11.740684
777,-2.2642083,-0.22432712,11.740684
778,-9.654441,-4.1410785,1.9357935
779,-9.654441,-4.1410785,1.9357935
780,-5.9820566,-13.157832,-2.5845475
781,-5.9820566,-13.157832,-2.5845475
782,-5.241777,-14.781961,-2.5435705
783,-5.241777,-14.781961,-2.5435705
784,-4.590331,-38.847176,-0.37328035
785,-4.590331,-38.847176,-0.37328035
786,-15.183058,-37.874493,0.24227329
787,-8.3943205,-19.115362,3.3493536
788,-8.3943205,-19.115362,3.3493536
789,-8.3943205,-19.115362,3.3493536
790,-8.3943205,-19.115362,3.3493536
791,12.973585,-17.927326,2.2232313
792,12.973585,-17.927326,2.2232313
793,12.973585,-17.927326,2.2232313
794,12.973585,-17.927326,2.2232313
795,12.973585,-17.927326,2.2232313
796,8.515457,-16.276577,-2.3784657
797,8.515457,-16.276577,-2.3784657
798,5.252844,-13.375878,-2.0814567
799,-3.6990047,-1.2089736,-5.4684973
800,-3.6990047,-1.2089736,-5.4684973
801,-4.971089,3.7977087,-7.492825
802,-6.696015,11.259427,-8.839087
803,-6.696015,11.259427,-8.839087
804,-4.2909293,13.190434,-25.010979
805,-4.2909293,13.190434,-25.010979
806,2.5268207,0.97806627,1.317847
807,2.5268207,0.97806627,1.317847
808,2.5268207,0.97806627,1.317847
809,2.5268207,0.97806627,1.317847
810,1.3651053,-7.192825,15.396318
811,1.3651053,-7.192825,15.396318
812,7.1955166,-12.518052,21.325134
813,7.1955166,-12.518052,21.325134
814,-0.20398813,-18.83271,-7.696514
815,-0.20398813,-18.83271,-7.696514
816,-5.994021,-18.631414,-4.136592
817,-5.994021,-18.631414,-4.136592
818,-5.639584,-17.984755,-14.403895
819,-5.639584,-17.984755,-14.403895
820,-5.1006007,-14.884852,-13.280465
821,-3.7109687,-11.294123,-13.366607
822,-1.250848,-8.210971,-12.604792
823,-1.250848,-8.210971,-12.604792
824,-4.2020955,-34.350765,2.2471595
825,-4.2020955,-34.350765,2.2471595
826,-4.2020955,-34.350765,2.2471595
827,-4.2020955,-34.350765,2.2471595
828,-0.2760719,-35.85525,-0.8380861
829,0.63200426,-28.316364,-2.1197417
830,0.63200426,-28.316364,-2.1197417
831,-5.5579286,-22.303799,19.902002
832,-12.4426775,-15.016757,15.060725
833,-12.4426775,-15.016757,15.060725
834,-12.4426775,-15.016757,15.060725
835,-7.1365933,-9.054142,7.3304124
836,-2.0676978,-6.203692,5.502894
837,2.2154546,-3.8081772,5.81426
838,2.2154546,-3.8081772,5.81426
839,17.143976,-1.3887345,10.214661
840,17.143976,-1.3887345,10.214661
841,17.143976,-1.3887345,10.214661
842,17.143976,-1.3887345,10.214661
843,6.297311,0.50129634,0.3164508
844,6.297311,0.50129634,0.3164508
845,5.588138,0.49172506,0.7573284
846,-9.723833,-3.9254255,-1.4081762
847,-9.723833,-3.9254255,-1.4081762
848,-9.723833,-3.9254255,-1.4081762
849,-9.723833,-3.9254255,-1.4081762
850,0.4546363,-19.122541,-1.7291135
851,0.4546363,-19.122541,-1.7291135
852,0.4546363,-19.122541,-1.7291135
853,0.4546363,-19.122541,-1.7291135
854,-1.9073788,-35.193935,0.53688955
855,-1.9073788,-35.193935,0.53688955
856,-14.059628,-36.046677,0.20638095
857,-14.059628,-36.046677,0.20638095
858,-12.186347,-24.344877,3.8114674
859,-12.186347,-24.344877,3.8114674
860,-8.382357,-18.775284,3.5216367
861,-8.382357,-18.775284,3.5216367
862,5.1810594,-17.74278,6.2548385
863,5.1810594,-17.74278,6.2548385
864,5.1810594,-17.74278,6.2548385
865,5.1810594,-17.74278,6.2548385
866,1.5254245,-2.4858437,-3.0729825
867,1.5254245,-2.4858437,-3.0729825
868,1.5254245,-2.4858437,-3.0729825
869,1.5254245,-2.4858437,-3.0729825
870,-4.9567323,5.122435,-7.2293153
871,-4.9567323,5.122435,-7.2293153
872,-7.1270223,10.971989,-8.508578
873,-7.1270223,10.971989,-8.508578
874,-5.2489557,12.404692,-21.291037
875,-5.2489557,12.404692,-21.291037
876,-2.6955147,11.178071,-9.311071
877,-2.6955147,11.178071,-9.311071
878,-2.6955147,11.178071,-9.311071
879,-2.6955147,11.178071,-9.311071
880,2.414059,-6.476773,13.134802
881,2.414059,-6.476773,13.134802
882,2.414059,-6.476773,13.134802
883,8.513064,-15.009579,17.32942
884,8.513064,-15.009579,17.32942
885,-9.683155,-12.25215,-18.104994
886,-9.683155,-12.25215,-18.104994
887,-9.683155,-12.25215,-18.104994
888,-9.683155,-12.25215,-18.104994
889,-9.683155,-12.25215,-18.104994
890,0.89072824,-10.393225,-15.014663
891,0.89072824,-10.393225,-15.014663
892,0.89072824,-10.393225,-15.014663
893,0.89072824,-10.393225,-15.014663
894,-2.335993,-14.915959,-7.313064
895,-3.4860435,-27.966713,5.421239
896,-3.4860435,-27.966713,5.421239
897,-3.4860435,-27.966713,5.421239
898,-3.4860435,-27.966713,5.421239
899,-0.46749774,-25.381866,3.7444685
900,-0.46749774,-25.381866,3.7444685
901,-0.46749774,-25.381866,3.7444685
902,-6.4995046,-20.260328,19.001404
903,-6.4995046,-20.260328,19.001404
904,-12.342179,-9.459127,11.422139
905,-12.342179,-9.459127,11.422139
906,-2.1302104,-5.573482,7.3713894
907,-2.1302104,-5.573482,7.3713894
908,-2.1302104,-5.573482,7.3713894
909,11.838191,-0.35862428,2.8031917
910,15.143875,2.4849463,6.5398836
911,15.143875,2.4849463,6.5398836
912,15.143875,2.4849463,6.5398836
913,8.326425,-1.6474584,5.0452666
914,8.326425,-1.6474584,5.0452666
915,8.326425,-1.6474584,5.0452666
916,0.11455639,-0.6795616,8.681459
917,0.11455639,-0.6795616,8.681459
918,-8.569296,-2.9482565,2.6018956
919,-8.569296,-2.9482565,2.6018956
920,-8.803793,-3.3529427,1.0280164
921,-8.803793,-3.3529427,1.0280164
922,-1.6701902,-15.675381,-7.545467
923,-3.6200416,-37.060036,1.3537394
924,-3.6200416,-37.060036,1.3537394
925,-3.6200416,-37.060036,1.3537394
926,-3.6200416,-37.060036,1.3537394
927,-13.245171,-25.341188,4.3145585
928,-13.245171,-25.341188,4.3145585
929,-13.245171,-25.341188,4.3145585
930,-13.245171,-25.341188,4.3145585
931,-0.33110684,-19.53949,2.2471595
932,-0.33110684,-19.53949,2.2471595
933,-0.33110684,-19.53949,2.2471595
934,-0.33110684,-19.53949,2.2471595
935,9.631709,-17.35933,4.247559
936,12.868002,-16.784454,0.30209386
937,12.868002,-16.784454,0.30209386
938,0.7372885,-5.0536413,-2.3186452
939,0.7372885,-5.0536413,-2.3186452
940,0.7372885,-5.0536413,-2.3186452
941,0.7372885,-5.0536413,-2.3186452
942,-4.5975094,13.520944,-16.21257
943,-4.5975094,13.520944,-16.21257
944,-4.5975094,13.520944,-16.21257
945,-4.5975094,13.520944,-16.21257
946,-2.2642083,12.708879,-14.154742
947,-2.2642083,12.708879,-14.154742
948,1.6139588,-1.8029919,3.9744785
949,1.6139588,-1.8029919,3.9744785
950,1.6139588,-1.8029919,3.9744785
951,1.6139588,-1.8029919,3.9744785
952,0.16719848,-9.610174,34.991444
953,0.16719848,-9.610174,34.991444
954,9.064013,-14.762818,29.333313
955,9.064013,-14.762818,29.333313
956,-3.8476589,-7.97139,-32.777184
957,-3.8476589,-7.97139,-32.777184
958,-4.6956153,-7.4012995,-6.9825554
959,-6.437291,-18.30569,-12.202498
960,-6.437291,-18.30569,-12.202498
961,-6.437291,-18.30569,-12.202498
962,-0.3502494,-12.247364,-10.523036
963,-0.3502494,-12.247364,-10.523036
964,-0.3502494,-12.247364,-10.523036
965,2.8286154,-14.053645,-2.1867409
966,2.8286154,-14.053645,-2.1867409
967,2.8286154,-14.053645,-2.1867409
968,-1.9097716,-30.774391,-8.640183
969,-1.9097716,-30.774391,-8.640183
970,0.72771716,-29.629126,4.3002014
971,0.72771716,-29.629126,4.3002014
972,-15.535401,-12.719348,10.157233
973,-15.535401,-12.719348,10.157233
974,-15.535401,-12.719348,10.157233
975,-15.535401,-12.719348,10.157233
976,3.1040893,-4.744668,5.665606
977,3.1040893,-4.744668,5.665606
978,3.1040893,-4.744668,5.665606
979,3.1040893,-4.744668,5.665606
980,7.748857,-2.7062824,4.1614175
981,15.304494,0.93738824,6.7005014
982,14.319847,0.012562319,3.0400813
983,14.319847,0.012562319,3.0400813
984,14.319847,0.012562319,3.0400813
985,14.319847,0.012562319,3.0400813
986,4.014259,0.317049,3.8234315
987,4.014259,0.317049,3.8234315
988,4.014259,0.317049,3.8234315
989,-6.3053865,-2.1194427,13.949259
990,-11.563615,-5.293223,1.7515461
991,-11.563615,-5.293223,1.7515461
992,-5.8357954,-13.241581,-6.489036
993,-5.8357954,-13.241581,-6.489036
994,-0.21595225,-37.067215,1.5000007
995,-0.21595225,-37.067215,1.5000007
996,-0.21595225,-37.067215,1.5000007
997,-0.21595225,-37.067215,1.5000007
998,-10.993525,-31.639097,1.9597218
999,-11.003096,-29.942884,2.3742783
1000,-9.6376915,-24.222544,4.1347976
1001,-9.536894,-22.200907,5.3255258
1002,-6.02752,-19.48655,3.6224344
1003,-6.02752,-19.48655,3.6224344
1004,0.20548365,-19.201504,3.0448668
1005,0.20548365,-19.201504,3.0448668
1006,0.20548365,-19.201504,3.0448668
1007,11.186446,-17.915361,1.0830513
1008,11.186446,-17.915361,1.0830513
1009,6.572785,-13.061821,-2.8408787
1010,6.572785,-13.061821,-2.8408787
1011,-5.639584,6.7537417,-8.010273
1012,-5.639584,6.7537417,-8.010273
1013,-5.639584,6.7537417,-8.010273
1014,-5.639584,6.7537417,-8.010273
1015,-7.982157,13.485051,-7.8831544
1016,1.7458632,4.9905305,-5.159524
1017,1.7458632,4.9905305,-5.159524
1018,1.7458632,4.9905305,-5.159524
1019,1.7458632,4.9905305,-5.159524
1020,1.7458632,4.9905305,-5.159524
1021,2.5411777,0.44626144,-0.96520483
1022,2.018944,-8.618349,28.248169
1023,2.018944,-8.618349,28.248169
1024,2.018944,-8.618349,28.248169
1025,6.491429,-11.330015,25.476383
1026,-0.89401835,-17.254045,4.793721
1027,-10.291531,-25.772495,-16.804195
1028,-10.291531,-25.772495,-16.804195
1029,-10.291531,-25.772495,-16.804195
1030,-10.291531,-25.772495,-16.804195
1031,0.06909275,-7.5667033,-15.0888405
1032,0.06909275,-7.5667033,-15.0888405
1033,0.06909275,-7.5667033,-15.0888405
1034,0.32542387,-7.355836,-14.904593
1035,0.33260235,-9.107083,-14.037195
1036,-3.0499516,-31.133614,7.004689
1037,-3.0499516,-31.133614,7.004689
1038,-3.0499516,-31.133614,7.004689
1039,-2.8510482,-32.32165,4.67408
1040,-1.849951,-33.67509,0.22552353
1041,-1.6941184,-28.146473,-5.023133
1042,-1.6941184,-28.146473,-5.023133
1043,-4.9567323,-25.42763,12.013764
1044,-12.13849,-16.044474,13.92533
1045,-12.13849,-16.044474,13.92533
1046,-8.023134,-11.4954195,9.357133
1047,-8.023134,-11.4954195,9.357133
1048,0.6343971,-5.465805,6.314958
1049,0.6343971,-5.465805,6.314958
1050,15.395421,3.19382,10.564611
1051,15.395421,3.19382,10.564611
1052,15.395421,3.19382,10.564611
1053,15.395421,3.19382,10.564611
1054,15.898512,-2.8594232,5.038088
1055,15.898512,-2.8594232,5.038088
1056,7.1835527,-0.9933205,0.7692925
1057,7.1835527,-0.9933205,0.7692925
1058,5.4493546,-0.43280178,2.1705892
1059,-11.575579,-6.07418,0.6206384
1060,-11.575579,-6.07418,0.6206384
1061,-11.575579,-6.07418,0.6206384
1062,-11.575579,-6.07418,0.6206384
1063,-10.64836,-7.300801,-0.16749759
1064,-0.17766708,-17.927326,-10.362717
1065,-0.17766708,-17.927326,-10.362717
1066,-0.5300102,-34.463226,1.0758729
1067,-0.5300102,-34.463226,1.0758729
1068,-13.729119,-28.227829,3.205485
1069,-13.729119,-28.227829,3.205485
1070,-13.729119,-28.227829,3.205485
1071,-2.786442,-20.267508,4.8439703
1072,-2.786442,-20.267508,4.8439703
1073,-2.786442,-20.267508,4.8439703
1074,-2.786442,-20.267508,4.8439703
1075,6.5368924,-18.818354,5.9243298
1076,6.5368924,-18.818354,5.9243298
1077,14.204693,-18.05654,5.4933224
1078,4.4192443,-7.446763,-4.033701
1079,4.4192443,-7.446763,-4.033701
1080,4.4192443,-7.446763,-4.033701
1081,4.4192443,-7.446763,-4.033701
1082,-8.0013,10.698908,-7.519146
1083,-8.0013,10.698908,-7.519146
1084,-8.0013,10.698908,-7.519146
1085,-8.0013,10.698908,-7.519146
1086,-7.484151,12.799807,-9.183952
1087,-1.579263,11.317154,-9.186345
1088,-1.579263,11.317154,-9.186345
1089,-1.579263,11.317154,-9.186345
1090,-1.579263,11.317154,-9.186345
1091,0.5072784,4.3701916,-3.6601214
1092,0.63200426,-8.714062,29.357243
1093,0.63200426,-8.714062,29.357243
1094,0.63200426,-8.714062,29.357243
1095,0.63200426,-8.714062,29.357243
1096,5.8683977,-12.844073,33.01497
1097,8.129914,-17.975183,2.879762
1098,8.129914,-17.975183,2.879762
1099,-7.416853,-7.952247,-16.880766
1100,-7.416853,-7.952247,-16.880766
1101,-16.25863,-29.365616,-15.7023
1102,-13.774583,-28.213472,-30.947273
1103,-4.2909293,-12.5348015,-9.864411
1104,-4.2909293,-12.5348015,-9.864411
1105,0.016151553,-9.418449,-13.989339
1106,1.788934,-11.227124,-5.6889358
1107,1.788934,-11.227124,-5.6889358
1108,0.86919284,-15.471692,-2.3353949
1109,-0.97537434,-23.056042,2.1825533
1110,-0.13220344,-33.287155,-1.9734805
1111,-0.13220344,-33.287155,-1.9734805
1112,1.1973087,-33.94817,-4.4841495
1113,-0.19680966,-28.302008,-5.317749
1114,-1.6271194,-26.428726,-0.08584251
1115,-10.638788,-19.592133,20.21606
1116,-11.44846,-18.394226,19.990837
1117,-12.210275,-13.184154,10.983654
1118,-11.711969,-10.826924,9.7043915
1119,-8.423035,-8.790632,9.41456
1120,-3.9218364,-6.58445,7.6130643
1121,4.412066,-2.4044876,5.4260244
1122,5.446962,-2.1000009,4.903791
1123,10.551749,0.24496523,5.8597236
1124,12.374782,1.4644074,7.3304124
1125,14.547464,1.591227,7.0286174
1126,12.975978,-2.1649063,3.844967
1127,12.975978,-2.1649063,3.844967
1128,7.224231,-0.3059822,4.8918266
1129,7.224231,-0.3059822,4.8918266
1130,4.5652065,-0.3394817,6.3867426
1131,-2.853441,-1.2879368,10.257731
1132,-6.748657,-2.0377877,9.323633
1133,-9.405289,-3.3290145,5.083552
1134,-9.206385,-4.2777686,3.411567
1135,-5.0886364,-12.427124,-5.5046883
1136,0.6942177,-25.571198,0.5560322
1137,0.6942177,-25.571198,0.5560322
1138,0.69900334,-32.003105,2.6952157
1139,-0.8006983,-38.21697,-0.95802635
1140,-11.786447,-23.863321,4.5206404
1141,-11.786447,-23.863321,4.5206404
1142,-11.786447,-23.863321,4.5206404
1143,-11.786447,-23.863321,4.5206404
1144,9.136096,-16.494623,5.069195
1145,9.136096,-16.494623,5.069195
1146,9.136096,-16.494623,5.069195
1147,9.136096,-16.494623,5.069195
1148,9.591031,-13.842778,-3.9954157
1149,9.591031,-13.842778,-3.9954157
1150,9.591031,-13.842778,-3.9954157
1151,9.591031,-13.842778,-3.9954157
1152,-0.64247286,-2.9338996,-5.430212
1153,-0.64247286,-2.9338996,-5.430212
1154,-5.6204414,3.6729827,-6.055636
1155,-5.6204414,3.6729827,-6.055636
1156,-4.467998,12.996317,-21.065813
1157,-4.467998,12.996317,-21.065813
1158,-4.467998,12.996317,-21.065813
1159,0.622433,7.529914,-5.9691954
1160,0.622433,7.529914,-5.9691954
1161,0.622433,7.529914,-5.9691954
1162,0.622433,7.529914,-5.9691954
1163,0.526421,-3.7555351,7.510173
1164,0.526421,-3.7555351,7.510173
1165,0.73011,-5.5543394,18.002401
1166,5.7248282,-8.730812,20.038692
1167,5.7248282,-8.730812,20.038692
1168,6.2111692,-12.820146,16.553247
1169,-6.04427,-9.772886,-20.495722
1170,-7.143772,-8.544171,-22.965414
1171,-8.983554,-7.6887374,-0.6969096
1172,-11.331212,-16.798811,64.66693
1173,-1.2364911,-14.221442,-11.699408
1174,-1.2364911,-14.221442,-11.699408
1175,-1.2364911,-14.221442,-11.699408
1176,-1.2364911,-14.221442,-11.699408
1177,6.4962144,-16.27897,-1.3627125
1178,6.4962144,-16.27897,-1.3627125
1179,6.4962144,-16.27897,-1.3627125
1180,-1.8400806,-29.152655,-5.68415
1181,-1.8400806,-29.152655,-5.68415
1182,-1.8400806,-29.152655,-5.68415
1183,-2.245066,-31.737204,-11.898011
1184,-3.1624143,-29.825638,-8.209176
1185,-17.88276,-17.812172,14.907584
1186,-17.88276,-17.812172,14.907584
1187,-17.88276,-17.812172,14.907584
1188,1.4057833,-6.9678993,4.1925244
1189,1.4057833,-6.9678993,4.1925244
1190,1.4057833,-6.9678993,4.1925244
1191,1.4057833,-6.9678993,4.1925244
1192,7.873583,-4.136293,3.3397822
1193,17.261524,1.9100707,10.701002
1194,17.261524,1.9100707,10.701002
1195,17.261524,1.9100707,10.701002
1196,19.108484,-1.4222339,9.984651
1197,8.422137,-1.1659029,-1.9758734
1198,8.422137,-1.1659029,-1.9758734
1199,8.422137,-1.1659029,-1.9758734
1200,4.284947,-0.19322042,-1.4727824
1201,-10.557432,-3.1755748,9.747462
1202,-10.557432,-3.1755748,9.747462
1203,-10.557432,-3.1755748,9.747462
1204,-7.5320077,-11.416157,-7.13121
1205,-7.5320077,-11.416157,-7.13121
1206,-5.0333023,-34.369907,0.9586246
1207,-5.0333023,-34.369907,0.9586246
1208,-5.0333023,-34.369907,0.9586246
1209,-5.0333023,-34.369907,0.9586246
1210,-13.039089,-37.55595,-0.061914288
1211,-13.039089,-37.55595,-0.061914288
1212,-13.039089,-37.55595,-0.061914288
1213,-6.1232333,-19.4363,3.7109687
1214,-6.1232333,-19.4363,3.7109687
1215,-6.1232333,-19.4363,3.7109687
1216,12.065509,-18.137896,3.2270205
1217,12.065509,-18.137896,3.2270205
1218,12.065509,-18.137896,3.2270205
1219,12.065509,-18.137896,3.2270205
1220,-0.41485563,-5.489733,-4.069593
1221,-0.41485563,-5.489733,-4.069593
1222,-0.41485563,-5.489733,-4.069593
1223,-0.41485563,-5.489733,-4.069593
1224,-8.708079,9.046066,-8.338388
1225,-8.708079,9.046066,-8.338388
1226,-8.708079,9.046066,-8.338388
1227,-7.8314095,14.924633,-8.668898
1228,-7.8314095,14.924633,-8.668898
1229,-4.552046,16.033707,-24.498615
1230,2.8046873,4.2000017,-1.9806589
1231,2.8046873,4.2000017,-1.9806589
1232,2.8046873,4.2000017,-1.9806589
1233,3.3221352,1.3325031,0.8458628
1234,3.3221352,1.3325031,0.8458628
1235,1.7434704,-4.176971,9.223135
1236,1.7434704,-4.176971,9.223135
1237,7.6698937,-11.049756,26.178377
1238,0.0017946169,-14.4897375,-12.154343
1239,-6.2144594,-7.913962,-4.4315076
1240,-6.2144594,-7.913962,-4.4315076
1241,-6.2144594,-7.913962,-4.4315076
1242,-11.747862,-16.573887,64.98069
1243,-16.505392,-29.593233,-39.134914
1244,-5.8429737,-18.554844,-12.590434
1245,-3.5793636,-14.616557,-9.073882
1246,3.8635113,-18.37987,0.22313072
1247,3.8635113,-18.37987,0.22313072
1248,3.8635113,-18.37987,0.22313072
1249,3.8635113,-18.37987,0.22313072
1250,2.3638096,-20.598314,2.391028
1251,-0.44835514,-27.28416,-1.329213
1252,0.40438703,-28.199116,-10.139885
1253,0.40438703,-28.199116,-10.139885
1254,0.40438703,-28.199116,-10.139885
1255,-6.111269,-25.259832,11.3524475
1256,-18.4361,-18.358334,16.397415
1257,-18.4361,-18.358334,16.397415
1258,-6.52104,-10.072288,8.374879
1259,-6.52104,-10.072288,8.374879
1260,-6.52104,-10.072288,8.374879
1261,4.553242,-5.6527443,4.968696
1262,12.305091,-1.7766708,5.4116673
1263,12.305091,-1.7766708,5.4116673
1264,16.147665,2.6045876,12.207882
1265,16.147665,2.6045876,12.207882
1266,17.084156,1.5768701,12.602997
1267,5.260022,0.7073782,0.21595225
1268,5.260022,0.7073782,0.21595225
1269,5.260022,0.7073782,0.21595225
1270,5.260022,0.7073782,0.21595225
1271,-0.5587241,-0.1381855,6.8515487
1272,-9.932307,-3.2093735,8.101798
1273,-9.932307,-3.2093735,8.101798
1274,-11.177772,-5.468198,2.0413768
1275,-2.4535406,-19.031614,-6.580262
1276,-2.4535406,-19.031614,-6.580262
1277,-2.3865414,-22.667807,0.802792
1278,-5.5914283,-36.751064,0.48903313
1279,-5.5914283,-36.751064,0.48903313
1280,-12.07867,-31.706097,1.9286151
1281,-12.07867,-31.706097,1.9286151
1282,-12.596118,-27.638597,4.022335
1283,-12.164811,-22.751856,3.828217
1284,8.1275215,-17.433807,4.2092743
1285,8.1275215,-17.433807,4.2092743
1286,8.1275215,-17.433807,4.2092743
1287,8.1275215,-17.433807,4.2092743
1288,9.361021,-14.805889,-1.3387842
1289,9.361021,-14.805889,-1.3387842
1290,9.361021,-14.805889,-1.3387842
1291,9.361021,-14.805889,-1.3387842
1292,-4.3962135,6.998109,-7.6220374
1293,-4.3962135,6.998109,-7.6220374
1294,-4.3962135,6.998109,-7.6220374
1295,-4.3962135,6.998109,-7.6220374
1296,-4.3962135,6.998109,-7.6220374
1297,-4.0202413,13.868202,-22.2036
1298,-4.0202413,13.868202,-22.2036
1299,-4.0202413,13.868202,-22.2036
1300,-3.629613,13.47548,-20.37339
1301,-2.2737796,11.170893,-9.737292
1302,0.4642076,1.9363917,-2.80708
1303,0.4642076,1.9363917,-2.80708
1304,0.94337034,0.055932228,-1.1685947
1305,5.3126645,-12.0125675,37.844284
1306,5.3126645,-12.0125675,37.844284
1307,5.3126645,-12.0125675,37.844284
1308,9.099904,-13.833207,31.834112
1309,-0.029312078,-15.239589,-25.010979
1310,-5.5483575,-9.08794,-19.362421
1311,-5.5483575,-9.08794,-19.362421
1312,-14.898013,-26.910282,-9.905089
1313,-10.3681,-25.599913,-19.913368
1314,-10.3681,-25.599913,-19.913368
1315,-5.337789,-14.537594,-8.982955
1316,0.061914288,-15.395122,-3.2766714
1317,0.061914288,-15.395122,-3.2766714
1318,0.061914288,-15.395122,-3.2766714
1319,0.061914288,-15.395122,-3.2766714
1320,-3.2153554,-23.76013,2.6952157
1321,0.89072824,-30.932318,-8.793623
1322,0.89072824,-30.932318,-8.793623
1323,0.89072824,-30.932318,-8.793623
1324,1.5493526,-29.950363,-9.8524475
1325,-2.4798615,-26.783463,3.3493536
1326,-6.9762745,-24.89343,17.921045
1327,-14.890835,-13.430914,12.059228
1328,-14.890835,-13.430914,12.059228
1329,-12.366107,-10.283155,10.720144
1330,-4.671687,-6.826424,8.157132
1331,7.9070826,-2.6413772,4.86072
1332,7.9070826,-2.6413772,4.86072
1333,7.9070826,-2.6413772,4.86072
1334,11.3422785,-1.2711871,6.178268
1335,15.804893,1.4380864,10.126126
1336,18.698713,-1.4413766,7.5723863
1337,18.698713,-1.4413766,7.5723863
1338,10.352846,-0.53359944,0.69272214
1339,10.352846,-0.53359944,0.69272214
1340,1.8990039,0.31226337,5.708677
1341,1.8990039,0.31226337,5.708677
1342,-9.043374,-3.321836,4.6908298
1343,-9.043374,-3.321836,4.6908298
1344,-6.207281,-12.623635,-6.335895
1345,-6.207281,-12.623635,-6.335895
1346,-6.207281,-12.623635,-6.335895
1347,-14.584254,-40.737206,-2.3425734
1348,-14.584254,-40.737206,-2.3425734
1349,-14.584254,-40.737206,-2.3425734
1350,-14.584254,-40.737206,-2.3425734
1351,-13.800903,-19.31666,5.715855
1352,-13.800903,-19.31666,5.715855
1353,-13.800903,-19.31666,5.715855
1354,-13.800903,-19.31666,5.715855
1355,-8.509176,-17.675781,3.885944
1356,8.012366,-17.807386,4.0295134
1357,8.012366,-17.807386,4.0295134
1358,10.5685,-15.57249,-2.579762
1359,10.5685,-15.57249,-2.579762
1360,10.5685,-15.57249,-2.579762
1361,10.5685,-15.57249,-2.579762
1362,-0.14416756,-2.9650064,-5.811269
1363,-0.14416756,-2.9650064,-5.811269
1364,-0.14416756,-2.9650064,-5.811269
1365,-5.6324053,6.358328,-8.463115
1366,-7.752446,9.268898,-8.958728
1367,-4.714758,15.192928,-24.888945
1368,-4.714758,15.192928,-24.888945
1369,-2.745764,14.354543,-16.923836
1370,-1.6271194,12.232109,-5.7463636
1371,-1.6271194,12.232109,-5.7463636
1372,0.16480567,1.8116659,-0.83090764
1373,0.16480567,1.8116659,-0.83090764
1374,8.611469,-12.300304,20.481964
1375,8.611469,-12.300304,20.481964
1376,8.611469,-12.300304,20.481964
1377,8.611469,-12.300304,20.481964
1378,11.821441,-15.409479,12.466606
1379,7.305886,-15.66581,-8.043773
1380,-6.969096,-8.283054,-11.859726
1381,-6.969096,-8.283054,-11.859726
1382,-15.657435,-29.621948,-20.073988
1383,-15.657435,-29.621948,-20.073988
1384,-5.7257257,-15.922141,-11.392827
1385,-5.7257257,-15.922141,-11.392827
1386,-2.3383858,-11.75175,-11.148459
1387,1.477568,-10.625628,-10.683654
1388,-0.05802595,-25.398914,1.2532408
1389,-0.05802595,-25.398914,1.2532408
1390,-0.05802595,-25.398914,1.2532408
1391,-0.05802595,-25.398914,1.2532408
1392,-1.2197413,-29.916565,-4.706981
1393,-20.058134,-17.503199,16.54607
1394,-20.058134,-17.503199,16.54607
1395,-20.058134,-17.503199,16.54607
1396,-20.058134,-17.503199,16.54607
1397,-20.058134,-17.503199,16.54607
1398,-8.27468,-10.6352,12.480963
1399,-8.27468,-10.6352,12.480963
1400,5.387141,-5.4753766,6.8252273
1401,5.387141,-5.4753766,6.8252273
1402,18.978971,2.4993033,9.436096
1403,18.978971,2.4993033,9.436096
1404,18.978971,2.4993033,9.436096
1405,18.978971,2.4993033,9.436096
1406,15.098412,-0.035294134,2.1538396
1407,15.098412,-0.035294134,2.1538396
1408,6.927222,0.994816,0.24945176
1409,2.7520452,0.6451648,3.7133617
1410,2.7520452,0.6451648,3.7133617
1411,-4.5951166,-0.74177504,11.745469
1412,-9.033803,-2.8881369,9.282955
1413,-11.666506,-5.2310095,1.2819548
1414,-11.333605,-6.605985,-2.4598217
1415,-2.312065,-23.630919,3.0882368
1416,-2.312065,-23.630919,3.0882368
1417,-2.312065,-23.630919,3.0882368
1418,-17.794226,-36.588055,0.762114
1419,-17.794226,-36.588055,0.762114
1420,-17.794226,-36.588055,0.762114
1421,-8.88784,-17.888742,6.736394
1422,-8.88784,-17.888742,6.736394
1423,-8.88784,-17.888742,6.736394
1424,-0.45792642,-17.438593,4.7769713
1425,-0.45792642,-17.438593,4.7769713
1426,14.142479,-17.210976,6.95444
1427,14.142479,-17.210976,6.95444
1428,14.7870455,-17.773886,5.0452666
1429,14.497215,-17.507984,0.59671015
1430,12.149557,-15.399907,-3.418147
1431,1.4679967,-7.4901333,-6.7429743
1432,-2.1732812,-3.2979078,-7.5933237
1433,-5.730511,2.8226335,-9.71815
1434,-5.730511,2.8226335,-9.71815
1435,-10.035199,7.010073,-9.675079
1436,-10.559826,8.784949,-9.701401
1437,-7.347461,14.407186,-15.057734
1438,-2.0605195,11.729018,-13.967803
1439,-2.0605195,11.729018,-13.967803
1440,-1.7922242,11.367403,-11.823834
1441,2.0835502,-1.4581263,1.7153547
1442,2.0835502,-1.4581263,1.7153547
1443,2.1314068,-3.9397824,6.283851
1444,2.1314068,-3.9397824,6.283851
1445,2.3207388,-8.09133,24.568605
1446,-8.286644,-10.0627165,-15.589539
1447,-8.286644,-10.0627165,-15.589539
1448,-8.286644,-10.0627165,-15.589539
1449,-8.286644,-10.0627165,-15.589539
1450,-13.460824,-19.275982,51.553963
1451,-13.460824,-19.275982,51.553963
1452,-16.92952,-25.798815,-37.937305
1453,-11.362318,-20.787348,-24.917658
1454,-8.1738825,-15.816856,-15.132211
1455,-2.1661026,-9.107083,-7.2508507
1456,1.9615164,-11.72513,-2.3377876
1457,1.9615164,-11.72513,-2.3377876
1458,2.9338996,-34.274193,-4.8768716
1459,2.9338996,-34.274193,-4.8768716
1460,2.9338996,-34.274193,-4.8768716
1461,2.9338996,-34.274193,-4.8768716
1462,3.595216,-29.772995,-12.683755
1463,0.85244304,-26.94378,-5.006383
1464,0.85244304,-26.94378,-5.006383
1465,-8.023134,-24.31347,21.765713
1466,-13.099209,-21.335901,26.286055
1467,-16.237097,-15.033506,11.129915
1468,-9.582357,-11.016256,11.913266
1469,-9.582357,-11.016256,11.913266
1470,1.3722838,-6.0287166,5.783153
1471,7.3082786,-2.955435,4.9109693
1472,7.3082786,-2.955435,4.9109693
1473,13.313665,0.9708878,7.2969127
1474,17.019548,1.131506,6.8300133
1475,17.019548,1.131506,6.8300133
1476,17.019548,1.131506,6.8300133
1477,11.124232,-0.80907315,0.721436
1478,6.9320073,-0.066400826,1.998306
1479,6.9320073,-0.066400826,1.998306
1480,-2.853441,-1.7527425,13.851153
1481,-2.853441,-1.7527425,13.851153
1482,-6.4827547,-2.8115666,11.247164
1483,-10.662717,-5.259723,-1.9543378
1484,-10.662717,-5.259723,-1.9543378
1485,-4.5975094,-16.295721,-4.208676
1486,-4.5975094,-16.295721,-4.208676
1487,-10.162318,-33.596127,-1.451247
1488,-10.162318,-33.596127,-1.451247
1489,-10.162318,-33.596127,-1.451247
1490,-10.162318,-33.596127,-1.451247
1491,-11.122737,-32.740993,-1.3603196
1492,-15.116059,-25.345974,3.5288153
1493,-14.488541,-24.392733,3.9673
1494,-14.636896,-22.428226,4.185346
1495,4.599005,-17.711674,7.2299137
1496,4.599005,-17.711674,7.2299137
1497,4.599005,-17.711674,7.2299137
1498,15.82912,-18.178871,1.4518452
1499,15.82912,-18.178871,1.4518452
1500,15.82912,-18.178871,1.4518452
1501,1.7937196,-6.0430737,-4.5296135
1502,1.7937196,-6.0430737,-4.5296135
1503,1.7937196,-6.0430737,-4.5296135
1504,-7.5942206,11.583056,-12.123236
1505,-7.5942206,11.583056,-12.123236
1506,-7.5942206,11.583056,-12.123236
1507,-7.5942206,11.583056,-12.123236
1508,-7.2756763,13.516158,-18.16242
1509,-5.8429737,12.7902355,-21.54707
1510,-1.2460624,6.1211395,-4.206283
1511,-1.2460624,6.1211395,-4.206283
1512,-0.024526432,-0.93349993,-0.90508515
1513,-0.024526432,-0.93349993,-0.90508515
1514,4.6875396,-9.483055,22.779074
1515,4.6875396,-9.483055,22.779074
1516,4.6875396,-9.483055,22.779074
1517,-6.96431,-8.879466,-14.2337055
1518,-6.96431,-8.879466,-14.2337055
1519,-6.96431,-8.879466,-14.2337055
1520,-6.96431,-8.879466,-14.2337055
1521,-7.0193453,-8.740383,-9.7348995
1522,-4.269394,-15.433407,-10.8682
1523,-4.269394,-15.433407,-10.8682
1524,-4.269394,-15.433407,-10.8682
1525,-4.269394,-15.433407,-10.8682
1526,-3.5027933,-14.274084,-10.721939
1527,5.0946183,-14.309977,-7.6076803
1528,5.0946183,-14.309977,-7.6076803
1529,5.861219,-19.57299,0.26859435
1530,1.7650058,-24.383162,2.0988045
1531,0.8811569,-26.335405,0.36909288
1532,-9.575179,-25.21676,18.558134
1533,-9.575179,-25.21676,18.558134
1534,-9.575179,-25.21676,18.558134
1535,-9.575179,-25.21676,18.558134
1536,-15.300605,-13.037892,10.825429
1537,-15.300605,-13.037892,10.825429
1538,-15.300605,-13.037892,10.825429
1539,-9.141779,-10.407582,10.207482
1540,-7.4865437,-10.041182,9.757333
1541,6.2518473,-5.2884374,6.029913
1542,16.835003,2.5878377,7.6588273
1543,16.835003,2.5878377,7.6588273
1544,16.835003,2.5878377,7.6588273
1545,16.835003,2.5878377,7.6588273
1546,13.514961,0.14446667,0.6975078
1547,13.514961,0.14446667,0.6975078
1548,7.0399833,0.36251262,6.448956
1549,7.0399833,0.36251262,6.448956
1550,-10.238888,-3.970889,-0.0738784
1551,-10.238888,-3.970889,-0.0738784
1552,-10.238888,-3.970889,-0.0738784
1553,-10.238888,-3.970889,-0.0738784
1554,0.44506502,-19.58974,-8.8701935
1555,0.44506502,-19.58974,-8.8701935
1556,0.44506502,-19.58974,-8.8701935
1557,0.44506502,-19.58974,-8.8701935
1558,-3.05713,-37.606197,-1.5831513
1559,-3.05713,-37.606197,-1.5831513
1560,-3.05713,-37.606197,-1.5831513
1561,-13.087244,-35.179577,-1.1877373
1562,-9.972985,-18.949959,7.0815587
1563,-9.972985,-18.949959,7.0815587
1564,-9.972985,-18.949959,7.0815587
1565,-9.972985,-18.949959,7.0815587
1566,1.8894325,-17.484056,6.128019
1567,9.174381,-16.947466,6.2261243
1568,9.174381,-16.947466,6.2261243
1569,13.728222,-18.10918,0.77647096
1570,13.507783,-17.946468,-0.33499518
1571,-3.790231,-1.0244272,-6.187241
1572,-3.790231,-1.0244272,-6.187241
1573,-3.790231,-1.0244272,-6.187241
1574,-3.790231,-1.0244272,-6.187241
1575,-6.655038,1.9268204,-6.8653073
1576,-8.482856,8.99821,-7.274779
1577,-5.009374,14.476577,-23.767908
1578,-5.009374,14.476577,-23.767908
1579,-5.009374,14.476577,-23.767908
1580,-5.009374,14.476577,-23.767908
1581,0.37328035,10.593624,-8.4197445
1582,0.37328035,10.593624,-8.4197445
1583,1.8631115,-8.100901,28.39413
1584,1.8631115,-8.100901,28.39413
1585,1.8631115,-8.100901,28.39413
1586,1.8631115,-8.100901,28.39413
1587,6.1677995,-9.236296,22.695324
1588,-8.281858,-11.868999,-12.844373
1589,-8.281858,-11.868999,-12.844373
1590,-8.281858,-11.868999,-12.844373
1591,-8.281858,-11.868999,-12.844373
1592,-4.5616174,-15.814464,-11.553146
1593,-4.5616174,-15.814464,-11.553146
1594,-4.5616174,-15.814464,-11.553146
1595,-4.5616174,-15.814464,-11.553146
1596,2.359024,-10.254441,-8.700004
1597,2.359024,-10.254441,-8.700004
1598,2.998805,-16.892431,-6.381359
1599,3.5641093,-19.421944,-2.5316064
1600,0.9936196,-24.581766,3.3661032
1601,-0.94666046,-28.225437,0.112761766
1602,-0.94666046,-28.225437,0.112761766
1603,-1.0184451,-30.96821,-10.599905
1604,-7.4072814,-26.713772,13.613964
1605,-7.4072814,-26.713772,13.613964
1606,-16.404894,-22.217657,22.937298
1607,-17.216957,-17.690138,13.767105
1608,-14.945869,-13.625031,11.460424
1609,9.375379,-2.615056,6.3867426
1610,9.375379,-2.615056,6.3867426
1611,9.375379,-2.615056,6.3867426
1612,9.375379,-2.615056,6.3867426
1613,9.375379,-2.615056,6.3867426
1614,16.097416,3.4381871,8.350951
1615,17.924934,4.374977,8.746365
1616,17.493927,1.3396816,5.191229
1617,17.493927,1.3396816,5.191229
1618,11.385349,-1.2089736,4.098905
1619,-7.4240313,-3.8321054,7.328019
1620,-7.4240313,-3.8321054,7.328019
1621,-7.4240313,-3.8321054,7.328019
1622,-7.4240313,-3.8321054,7.328019
1623,-10.186246,-5.602495,-0.9314062
1624,-10.277173,-6.038288,-2.1460629
1625,-5.9270215,-15.287445,-5.71765
1626,-3.4019957,-22.505095,-2.5220351
1627,-3.289533,-23.827429,0.33080772
1628,-4.065705,-40.464127,-1.925624
1629,-13.475181,-35.270504,-2.333002
1630,-13.475181,-35.270504,-2.333002
1631,-13.707583,-33.469307,-1.5041882
1632,-12.490534,-24.009283,3.3155549
1633,-10.638788,-20.013569,4.3121657
1634,-8.372786,-17.289938,2.5178475
1635,-1.7300107,-17.12962,3.1456645
1636,8.038688,-16.971394,4.808078
1637,12.300304,-17.050356,-0.25603202
1638,12.300304,-17.050356,-0.25603202
1639,11.229517,-16.47309,-2.5869403
1640,11.229517,-16.47309,-2.5869403
1641,6.378667,-12.791133,-5.8016977
1642,-0.26171497,-4.109972,-4.651647
1643,-0.37417763,-3.24048,-4.215854
1644,-4.846662,7.6495547,-7.665407
1645,-4.846662,7.6495547,-7.665407
1646,-4.1638107,16.043278,-12.978371
1647,-2.7218359,16.486547,-19.364815
1648,-0.098703936,9.791131,-6.4292154
1649,-0.098703936,9.791131,-6.4292154
1650,-0.098703936,9.791131,-6.4292154
1651,-0.098703936,9.791131,-6.4292154
1652,0.24855445,-8.886644,41.947975
1653,0.24855445,-8.886644,41.947975
1654,0.24855445,-8.886644,41.947975
1655,0.24855445,-8.886644,41.947975
1656,9.713365,-13.53859,28.46113
1657,9.713365,-13.53859,28.46113
1658,-13.899308,-27.938,-35.436207
1659,-13.899308,-27.938,-35.436207
1660,-13.899308,-27.938,-35.436207
1661,-13.899308,-27.938,-35.436207
1662,-13.899308,-27.938,-35.436207
1663,0.8739785,-7.372586,-11.8334055
1664,0.8739785,-7.372586,-11.8334055
1665,0.8739785,-7.372586,-11.8334055
1666,0.8739785,-7.372586,-11.8334055
1667,0.80189466,-22.545773,4.6378884
1668,0.80189466,-22.545773,4.6378884
1669,0.42831525,-25.738995,5.2250276
1670,-0.017347964,-31.514372,1.1165509
1671,0.1576272,-33.061928,-3.5353954
1672,0.25094727,-29.621948,-10.240383
1673,-1.9480567,-27.360731,-1.2981063
1674,-10.914262,-24.56741,22.287947
1675,-12.850056,-22.169502,21.463919
1676,-14.658431,-18.705591,14.397315
1677,-3.8931224,-8.39791,8.628818
1678,-3.8931224,-8.39791,8.628818
1679,-3.8931224,-8.39791,8.628818
1680,-3.8931224,-8.39791,8.628818
1681,8.774181,-0.32512477,6.767501
1682,8.774181,-0.32512477,6.767501
1683,11.359028,2.844169,8.813364
1684,12.527922,1.564906,7.194021
1685,12.527922,1.564906,7.194021
1686,10.5589285,-0.8210373,3.0089746
1687,10.5589285,-0.8210373,3.0089746
1688,-6.247959,-3.712165,2.2495525
1689,-6.247959,-3.712165,2.2495525
1690,-6.247959,-3.712165,2.2495525
1691,-6.247959,-3.712165,2.2495525
1692,-9.407681,-5.360521,-1.9160527
1693,-2.5636103,-27.219255,4.264309
1694,-2.5636103,-27.219255,4.264309
1695,-2.5636103,-27.219255,4.264309
1696,-2.5636103,-27.219255,4.264309
1697,-4.875376,-37.730927,-1.3890336
1698,-4.875376,-37.730927,-1.3890336
1699,-13.999807,-29.65784,1.7057835
1700,-13.999807,-29.65784,1.7057835
1701,-12.701402,-26.596523,3.2820554
1702,-9.103494,-19.350159,5.0189457
1703,-1.9145572,-19.026829,5.32074
1704,-1.9145572,-19.026829,5.32074
1705,-1.9145572,-19.026829,5.32074
1706,12.1352005,-16.537695,-2.4215364
1707,12.1352005,-16.537695,-2.4215364
1708,12.1352005,-16.537695,-2.4215364
1709,12.1352005,-16.537695,-2.4215364
1710,-1.6127625,-1.0462617,-5.8208404
1711,-1.6127625,-1.0462617,-5.8208404
1712,-1.6127625,-1.0462617,-5.8208404
1713,-4.1518464,1.4715859,-7.7108707
1714,-6.585646,7.8436728,-7.4880395
1715,-6.52104,10.272687,-8.04138
1716,-5.270491,15.125929,-17.841484
1717,-2.2187448,13.547264,-16.02563
1718,-2.2187448,13.547264,-16.02563
1719,-0.4746762,6.257829,-2.0694926
1720,-0.4746762,6.257829,-2.0694926
1721,-0.4746762,6.257829,-2.0694926
1722,1.137488,-4.153043,9.486345
1723,1.137488,-4.153043,9.486345
1724,1.137488,-4.153043,9.486345
1725,11.449955,-14.461023,12.617353
1726,11.449955,-14.461023,12.617353
1727,11.449955,-14.461023,12.617353
1728,-4.7362933,-10.383654,-18.665512
1729,-19.48296,-23.084757,71.17301
1730,-19.48296,-23.084757,71.17301
1731,-19.48296,-23.084757,71.17301
1732,0.98883396,-7.722237,-9.588938
1733,0.98883396,-7.722237,-9.588938
1734,0.98883396,-7.722237,-9.588938
1735,0.98883396,-7.722237,-9.588938
1736,-0.5491528,-22.648664,5.7397833
1737,-0.5491528,-22.648664,5.7397833
1738,-0.5491528,-22.648664,5.7397833
1739,-0.5491528,-22.648664,5.7397833
1740,-1.7946169,-25.901707,4.1084766
1741,-1.1455638,-31.65824,-5.552545
1742,0.05712864,-31.593634,-12.820445
1743,-2.8031917,-24.751955,0.4244269
1744,-10.787442,-20.38984,21.102303
1745,-12.454642,-19.594526,22.304697
1746,-0.30957142,-8.467302,9.251849
1747,-0.30957142,-8.467302,9.251849
1748,-0.30957142,-8.467302,9.251849
1749,-0.30957142,-8.467302,9.251849
1750,13.8024,0.6978069,7.8984084
1751,13.8024,0.6978069,7.8984084
1752,13.8024,0.6978069,7.8984084
1753,14.164015,0.48454657,6.456135
1754,14.164015,0.48454657,6.456135
1755,14.164015,0.48454657,6.456135
1756,9.6942215,-0.8880363,1.6674982
1757,7.7297144,-0.24855445,1.0088738
1758,7.7297144,-0.24855445,1.0088738
1759,1.5110675,0.09182457,9.529716
1760,-5.7281184,-1.9947168,9.721141
1761,-8.918947,-4.7470613,-0.23449662
1762,-8.918947,-4.7470613,-0.23449662
1763,-8.918947,-4.7470613,-0.23449662
1764,0.090628155,-18.669699,-5.9141603
1765,0.090628155,-18.669699,-5.9141603
1766,0.090628155,-18.669699,-5.9141603
1767,-13.566108,-40.828136,-1.5975082
1768,-13.566108,-40.828136,-1.5975082
1769,-13.566108,-40.828136,-1.5975082
1770,-13.566108,-40.828136,-1.5975082
1771,-7.160522,-17.356937,5.617749
1772,-7.160522,-17.356937,5.617749
1773,-7.160522,-17.356937,5.617749
1774,-7.160522,-17.356937,5.617749
1775,12.106486,-16.38216,4.223631
1776,12.106486,-16.38216,4.223631
1777,14.465809,-16.734205,4.2690945
1778,4.685147,-10.057931,-4.912764
1779,4.685147,-10.057931,-4.912764
1780,4.685147,-10.057931,-4.912764
1781,-3.9768713,1.0378869,-8.010273
1782,-3.9768713,1.0378869,-8.010273
1783,-3.9768713,1.0378869,-8.010273
1784,-3.9768713,1.0378869,-8.010273
1785,-8.976375,10.660624,-9.162417
1786,-8.976375,10.660624,-9.162417
1787,-6.518647,13.607085,-21.827627
1788,-3.9696927,12.816556,-17.930017
1789,0.95054877,-0.123828575,0.9056834
1790,0.95054877,-0.123828575,0.9056834
1791,0.95054877,-0.123828575,0.9056834
1792,0.95054877,-0.123828575,0.9056834
1793,0.44985065,-7.70788,22.599312
1794,0.44985065,-7.70788,22.599312
1795,0.44985065,-7.70788,22.599312
1796,-5.9581285,-6.745068,-26.700012
1797,-5.9581285,-6.745068,-26.700012
1798,-5.9581285,-6.745068,-26.700012
1799,-5.9581285,-6.745068,-26.700012
1800,-9.972985,-8.438588,3.7995033
1801,-12.270096,-32.954254,-30.271599
1802,-12.270096,-32.954254,-30.271599
1803,-12.270096,-32.954254,-30.271599
1804,7.4709907,-9.681958,-3.6481571
1805,7.4709907,-9.681958,-3.6481571
1806,7.4709907,-9.681958,-3.6481571
1807,7.4709907,-9.681958,-3.6481571
1808,-1.3827524,-28.071997,-3.6000016
1809,-1.3827524,-28.071997,-3.6000016
1810,-1.3827524,-28.071997,-3.6000016
1811,-0.65922266,-30.481869,-7.4449687
1812,-0.65922266,-30.481869,-7.4449687
1813,-14.066806,-19.026829,17.47299
1814,-14.066806,-19.026829,17.47299
1815,-14.066806,-19.026829,17.47299
1816,-14.066806,-19.026829,17.47299
1817,-12.550355,-13.279866,11.872289
1818,3.3005998,-3.81057,4.8559346
1819,3.3005998,-3.81057,4.8559346
1820,3.3005998,-3.81057,4.8559346
1821,3.3005998,-3.81057,4.8559346
1822,10.036695,-0.552742,4.106084
1823,10.036695,-0.552742,4.106084
1824,13.792828,0.09900304,8.564211
1825,13.792828,0.09900304,8.564211
1826,13.546068,-3.6547375,6.7555366
1827,11.557932,-3.0822546,4.5708895
1828,7.7010007,-0.81625164,1.7419748
1829,-9.654441,-1.8846469,7.697112
1830,-9.654441,-1.8846469,7.697112
1831,-9.654441,-1.8846469,7.697112
1832,-9.654441,-1.8846469,7.697112
1833,-10.277173,-2.8905299,1.995614
1834,-8.413464,-5.621638,1.2197413
1835,-3.5961134,-12.822538,-5.044668
1836,0.5479564,-18.265013,-6.6831536
1837,0.770788,-21.525234,-1.5448661
1838,0.42592242,-37.213478,-1.791626
1839,0.42592242,-37.213478,-1.791626
1840,-8.86152,-37.050465,-1.2669996
1841,-15.051453,-29.832815,-0.4956134
1842,-15.051453,-29.832815,-0.4956134
1843,-13.836796,-24.531517,3.83061
1844,-11.350354,-18.094824,7.172486
1845,-8.7679,-17.412271,6.5569324
1846,-8.7679,-17.412271,6.5569324
1847,14.271991,-17.608482,1.5789639
1848,14.271991,-17.608482,1.5789639
1849,14.271991,-17.608482,1.5789639
1850,12.9018,-15.917356,-2.2728825
1851,3.7100716,-8.515159,-3.652943
1852,3.7100716,-8.515159,-3.652943
1853,-0.046061836,-4.965107,-4.9992046
1854,-0.046061836,-4.965107,-4.9992046
1855,-4.9256253,2.5112674,-7.2341013
1856,-8.717651,9.014959,-6.759724
1857,-8.717651,9.014959,-6.759724
1858,-3.2105699,10.500304,-9.358928
1859,-3.2105699,10.500304,-9.358928
1860,-3.2105699,10.500304,-9.358928
1861,-0.721436,7.6160555,-5.3799624
1862,-0.721436,7.6160555,-5.3799624
1863,1.1231312,-2.1744776,3.4354951
1864,1.1231312,-2.1744776,3.4354951
1865,5.0970116,-7.899605,22.371994
1866,5.0970116,-7.899605,22.371994
1867,-4.523332,-12.436696,-12.837194
1868,-6.1737814,-11.4353,-10.166206
1869,-6.1737814,-11.4353,-10.166206
1870,-5.205885,-10.824532,-3.8730826
1871,-18.11277,-27.959534,-25.456642
1872,-18.11277,-27.959534,-25.456642
1873,-18.11277,-27.959534,-25.456642
1874,-3.1624143,-13.253546,-4.045665
1875,-3.1624143,-13.253546,-4.045665
1876,1.410569,-9.978968,-2.1891336
1877,3.1710882,-16.846968,-3.0059834
1878,3.1710882,-16.846968,-3.0059834
1879,3.1710882,-16.846968,-3.0059834
1880,0.89072824,-22.042683,-3.0729825
1881,0.29910284,-24.728027,-3.691228
1882,-4.3986063,-25.652554,8.16431
1883,-4.3986063,-25.652554,8.16431
1884,-4.3986063,-25.652554,8.16431
1885,-8.090134,-24.44059,16.368702
1886,-15.74597,-18.001503,17.336597
1887,-15.74597,-18.001503,17.336597
1888,2.2704897,-5.722136,3.9840498
1889,2.2704897,-5.722136,3.9840498
1890,2.2704897,-5.722136,3.9840498
1891,2.2704897,-5.722136,3.9840498
1892,14.065908,-0.33708888,9.223135
1893,14.065908,-0.33708888,9.223135
1894,14.065908,-0.33708888,9.223135
1895,8.448459,-2.0760727,1.2604194
1896,8.448459,-2.0760727,1.2604194
1897,8.448459,-2.0760727,1.2604194
1898,8.448459,-2.0760727,1.2604194
1899,8.448459,-2.0760727,1.2604194
1900,1.396212,0.03678965,5.665606
1901,1.396212,0.03678965,5.665606
1902,-5.989235,-1.2161521,9.965508
1903,-9.6783695,-3.9780676,1.6794624
1904,-9.6783695,-3.9780676,1.6794624
1905,-4.863412,-25.310081,2.5516462
1906,-4.863412,-25.310081,2.5516462
1907,-4.863412,-25.310081,2.5516462
1908,-4.863412,-25.310081,2.5516462
1909,-5.081458,-33.490845,-0.7543373
1910,-11.604293,-26.411976,2.295315
1911,-11.604293,-26.411976,2.295315
1912,-11.604293,-26.411976,2.295315
1913,-11.604293,-26.411976,2.295315
1914,-3.5339,-18.394226,6.0323057
1915,-3.5339,-18.394226,6.0323057
1916,-3.5339,-18.394226,6.0323057
1917,6.1127644,-18.487844,6.1710896
1918,9.169596,-19.158434,5.5914283
1919,10.348061,-18.914066,3.179164
1920,10.348061,-18.914066,3.179164
1921,-1.3995022,-4.316054,-4.6564326
1922,-1.3995022,-4.316054,-4.6564326
1923,-1.3995022,-4.316054,-4.6564326
1924,-1.3995022,-4.316054,-4.6564326
1925,-4.2308097,1.5218352,-7.763513
1926,-4.2308097,1.5218352,-7.763513
1927,-6.655038,6.6338015,-8.098807
1928,-6.5569324,15.01586,-15.323636
1929,-6.358029,14.996418,-22.91038
1930,-3.2416766,14.653945,-16.032808
1931,-1.820938,14.230116,-11.090733
1932,1.4297116,9.575478,-3.976273
1933,2.1098714,8.234002,-3.1283164
1934,3.2117662,-2.8953154,6.889834
1935,3.2117662,-2.8953154,6.889834
1936,5.7248282,-9.535697,20.862722
1937,-5.0572305,-9.701101,2.757429
1938,-5.0572305,-9.701101,2.757429
1939,-5.0572305,-9.701101,2.757429
1940,-5.0572305,-9.701101,2.757429
1941,-3.1145577,-9.717851,34.34209
1942,-11.388639,-23.216362,-34.046875
1943,-1.2269198,-9.566804,-3.566502
1944,-1.2269198,-9.566804,-3.566502
1945,-1.2269198,-9.566804,-3.566502
1946,-1.2269198,-9.566804,-3.566502
1947,0.8356933,-22.212872,0.41964126
1948,0.8356933,-22.212872,0.41964126
1949,0.8356933,-22.212872,0.41964126
1950,0.8356933,-22.212872,0.41964126
1951,1.3360924,-30.165716,-15.110376
1952,1.3360924,-30.165716,-15.110376
1953,1.3360924,-30.165716,-15.110376
1954,1.3360924,-30.165716,-15.110376
1955,-2.0413768,-27.221647,5.069195
1956,-13.7171545,-18.38944,21.787249
1957,-13.7171545,-18.38944,21.787249
1958,-5.378467,-9.746565,7.9055867
1959,-5.378467,-9.746565,7.9055867
1960,-5.378467,-9.746565,7.9055867
1961,-5.378467,-9.746565,7.9055867
1962,14.037195,-0.14297116,8.135298
1963,14.037195,-0.14297116,8.135298
1964,14.037195,-0.14297116,8.135298
1965,14.037195,-0.14297116,8.135298
1966,15.13909,-0.5407779,7.119844
1967,15.13909,-0.5407779,7.119844
1968,15.13909,-0.5407779,7.119844
1969,15.13909,-0.5407779,7.119844
1970,5.770292,-0.0735793,6.053841
1971,-1.076172,-1.0510473,11.647364
1972,-1.076172,-1.0510473,11.647364
1973,-7.6683984,-12.352947,-4.287639
1974,-7.6683984,-12.352947,-4.287639
1975,-7.6683984,-12.352947,-4.287639
1976,-5.1699924,-16.228722,-6.4818573
1977,-3.9891346,-17.946468,-4.438686
1978,-8.525927,-34.094433,-0.9314062
1979,-8.525927,-34.094433,-0.9314062
1980,-8.525927,-34.094433,-0.9314062
1981,-8.525927,-34.094433,-0.9314062
1982,-9.359825,-21.8031,3.4307094
1983,-9.359825,-21.8031,3.4307094
1984,-9.359825,-21.8031,3.4307094
1985,-9.359825,-21.8031,3.4307094
1986,-1.9025931,-19.23261,7.1485577
1987,1.8726828,-19.129719,7.3256264
1988,9.102298,-18.621843,8.583354
1989,12.734004,-18.181265,4.714758
1990,12.734004,-18.181265,4.714758
1991,11.950654,-16.176079,-0.08823533
1992,10.922936,-15.361622,-0.91465646
1993,2.2704897,-6.8599234,-2.80708
1994,-1.8834505,-1.1156535,-7.4042907
1995,-1.8834505,-1.1156535,-7.4042907
1996,-7.278069,8.497512,-9.272786
1997,-7.278069,8.497512,-9.272786
1998,-2.6210382,13.072887,-14.537893
1999,-2.6210382,13.072887,-14.537893
2000,-2.6210382,13.072887,-14.537893
2001,0.622433,6.0972114,-3.5593238
2002,0.622433,6.0972114,-3.5593238
2003,0.8234301,3.8479578,-2.0240288
2004,1.0007981,-2.1984057,1.5071791
2005,0.25094727,-8.484052,26.626432
2006,0.25094727,-8.484052,26.626432
2007,3.2093735,-9.499805,27.582067
2008,5.0850472,-9.701101,23.950659
2009,10.106087,-12.87518,15.111273
2010,-7.7090764,-20.857038,24.702604
2011,-7.7090764,-20.857038,24.702604
2012,-7.7090764,-20.857038,24.702604
2013,-1.8329022,-10.735997,-6.9538417
2014,-1.8329022,-10.735997,-6.9538417
2015,-1.8329022,-10.735997,-6.9538417
2016,-1.8329022,-10.735997,-6.9538417
2017,-0.45553362,-10.057931,-7.1096745
2018,-0.6735796,-26.47449,-2.321038
2019,-0.6735796,-26.47449,-2.321038
2020,-0.6735796,-26.47449,-2.321038
2021,-0.6735796,-26.47449,-2.321038
2022,-5.3593245,-25.93042,11.719148
2023,-5.3593245,-25.93042,11.719148
2024,-5.3593245,-25.93042,11.719148
2025,-5.3593245,-25.93042,11.719148
2026,-11.69522,-12.276077,12.169597
2027,-11.69522,-12.276077,12.169597
2028,-11.69522,-12.276077,12.169597
2029,-11.69522,-12.276077,12.169597
2030,5.9042897,-3.362514,6.142376
2031,5.9042897,-3.362514,6.142376
2032,5.9042897,-3.362514,6.142376
2033,8.992228,-1.9061823,6.2790656
2034,13.840684,-0.1788635,5.469095
2035,13.840684,-0.1788635,5.469095
2036,13.840684,-0.1788635,5.469095
2037,13.840684,-0.1788635,5.469095
2038,9.270094,-0.17407785,1.1500504
2039,-4.3674994,-2.0210378,9.7812605
2040,-4.3674994,-2.0210378,9.7812605
2041,-4.3674994,-2.0210378,9.7812605
2042,-4.3674994,-2.0210378,9.7812605
2043,-7.385746,-3.254837,6.791429
2044,-8.686544,-5.817849,2.6138597
2045,-6.84437,-9.454341,-0.962812
2046,-2.204388,-27.080471,3.694219
2047,-2.204388,-27.080471,3.694219
2048,-2.204388,-27.080471,3.694219
2049,-2.5636103,-33.054752,1.590928
2050,-8.092526,-40.353756,-1.3363914
2051,-13.784154,-37.184765,-0.97477615
2052,-13.784154,-37.184765,-0.97477615
2053,-9.623335,-18.128323,4.7865424
2054,-9.623335,-18.128323,4.7865424
2055,-9.623335,-18.128323,4.7865424
2056,-2.3985057,-17.783459,6.5111694
2057,3.432205,-17.8696,6.841977
2058,11.720643,-17.85285,6.343672
2059,11.720643,-17.85285,6.343672
2060,13.86222,-17.213367,-1.0226326
2061,10.920544,-15.292231,-3.0227332
2062,7.1021967,-12.621243,-2.8408787
2063,-3.0906296,-0.69152576,-8.855837
2064,-3.0906296,-0.69152576,-8.855837
2065,-5.32074,2.3362923,-10.206884
2066,-8.430213,9.079565,-8.597113
2067,-8.430213,9.079565,-8.597113
2068,-6.9523463,14.572589,-21.949661
2069,-5.6994042,14.294723,-21.15674
2070,-1.361217,13.542479,-8.839087
2071,-1.361217,13.542479,-8.839087
2072,1.9806589,2.079961,0.8386843
2073,1.9806589,2.079961,0.8386843
2074,1.9806589,2.079961,0.8386843
2075,4.0310087,-8.625527,22.467707
2076,4.0310087,-8.625527,22.467707
2077,8.422137,-9.64128,8.590532
2078,10.33849,-9.78485,6.2237315
2079,10.33849,-9.78485,6.2237315
2080,-13.779368,-21.652353,18.876978
2081,-13.779368,-21.652353,18.876978
2082,-13.779368,-21.652353,18.876978
2083,-18.390636,-29.979076,-57.719368
2084,-18.390636,-29.979076,-57.719368
2085,-6.774978,-20.557337,-14.420645
2086,5.8636117,-14.003396,4.879863
2087,5.8636117,-14.003396,4.879863
2088,5.8636117,-14.003396,4.879863
2089,5.8636117,-14.003396,4.879863
2090,1.3698909,-32.06053,-10.729117
2091,1.3698909,-32.06053,-10.729117
2092,1.3698909,-32.06053,-10.729117
2093,1.3698909,-32.06053,-10.729117
2094,-12.687045,-19.256838,18.297018
2095,-12.687045,-19.256838,18.297018
2096,-12.687045,-19.256838,18.297018
2097,-12.687045,-19.256838,18.297018
2098,-13.544573,-18.669699,17.952152
2099,-13.848761,-16.029818,11.752647
2100,-9.742975,-12.034403,9.728319
2101,-3.7157545,-9.81835,8.322237
2102,10.51825,-0.4543372,8.350951
2103,10.51825,-0.4543372,8.350951
2104,10.51825,-0.4543372,8.350951
2105,13.977374,-0.111864455,6.952047
2106,13.977374,-0.111864455,6.952047
2107,13.977374,-0.111864455,6.952047
2108,11.974582,0.64037913,0.005084748
2109,10.177871,1.4237294,0.34277186
2110,7.7946196,1.1817553,7.7353973
2111,7.7946196,1.1817553,7.7353973
2112,-1.0689936,-1.707279,12.083157
2113,-7.7763743,-5.2022953,1.1356934
2114,-7.7763743,-5.2022953,1.1356934
2115,-7.7763743,-5.2022953,1.1356934
2116,-6.317351,-8.608778,0.024227329
2117,-2.1684954,-15.761522,-7.725228
2118,-1.4186447,-27.118757,4.4488554
2119,-2.676372,-36.123547,-1.2693924
2120,-2.676372,-36.123547,-1.2693924
2121,-12.471392,-37.781174,-1.0944172
2122,-11.534901,-17.584555,4.3097725
2123,-11.534901,-17.584555,4.3097725
2124,-11.534901,-17.584555,4.3097725
2125,-11.534901,-17.584555,4.3097725
2126,-5.6060843,-16.432411,5.083552
2127,-5.6060843,-16.432411,5.083552
2128,10.403095,-16.281363,5.5914283
2129,12.868002,-17.196619,3.3684962
2130,13.289737,-17.860027,0.13938192
2131,10.9684,-16.549658,-1.8418752
2132,-0.2760719,-3.254837,-5.6004014
2133,-0.2760719,-3.254837,-5.6004014
2134,-0.2760719,-3.254837,-5.6004014
2135,-5.419145,6.355935,-7.4832535
2136,-5.419145,6.355935,-7.4832535
2137,-5.419145,6.355935,-7.4832535
2138,-7.076773,9.357432,-7.327421
2139,-7.9558363,15.267106,-12.702897
2140,-3.8524444,14.29233,-17.937197
2141,-1.6127625,13.01546,-9.739685
2142,-1.6127625,13.01546,-9.739685
2143,1.8966111,-1.2927225,1.8113668
2144,1.8966111,-1.2927225,1.8113668
2145,1.8966111,-1.2927225,1.8113668
2146,9.416355,-10.350154,13.808083
2147,9.416355,-10.350154,13.808083
2148,9.416355,-10.350154,13.808083
2149,10.899008,-12.295519,19.974087
2150,0.25812575,-15.239589,10.6770735
2151,-6.0107703,-21.192333,17.022839
2152,-6.0107703,-21.192333,17.022839
2153,-9.894023,-26.234907,-43.8398
2154,-8.255239,-19.673489,-20.905193
2155,-6.0490556,-14.127823,-8.68804
2156,-6.0490556,-14.127823,-8.68804
2157,-0.88205427,-9.140582,-8.525328
2158,-1.1431711,-12.597314,-8.257032
2159,-3.1671999,-32.08446,-1.7075781
2160,-3.1671999,-32.08446,-1.7075781
2161,-3.1671999,-32.08446,-1.7075781
2162,-3.1671999,-32.08446,-1.7075781
2163,0.65353966,-30.640095,-8.345567
2164,0.65353966,-30.640095,-8.345567
2165,0.57936215,-28.081867,-6.244669
2166,-12.962519,-15.756737,14.157733
2167,-12.962519,-15.756737,14.157733
2168,-12.962519,-15.756737,14.157733
2169,-11.886945,-11.397015,9.268599
2170,5.5689955,-3.6140594,5.18405
2171,5.5689955,-3.6140594,5.18405
2172,5.5689955,-3.6140594,5.18405
2173,5.5689955,-3.6140594,5.18405
2174,11.296815,0.06550352,6.24766
2175,11.162518,-2.0210378,1.4374882
2176,11.162518,-2.0210378,1.4374882
2177,11.162518,-2.0210378,1.4374882
2178,11.162518,-2.0210378,1.4374882
2179,8.156235,-2.0306091,2.3407788
2180,4.124628,-1.4150555,7.982157
2181,0.016151553,-1.7623138,12.310774
2182,-6.300601,-2.6174488,10.794322
2183,-8.128419,-2.792424,7.6516485
2184,-8.128419,-2.792424,7.6516485
2185,-9.64487,-3.3696926,0.50099725
2186,-4.187739,-11.159825,-5.6937213
2187,-2.3264217,-14.470595,-7.873583
2188,-3.8213377,-37.282867,-1.4321043
2189,-3.8213377,-37.282867,-1.4321043
2190,-3.8213377,-37.282867,-1.4321043
2191,-7.1413794,-37.30919,-2.3114667
2192,-12.205489,-30.09154,-2.5196424
2193,-12.205489,-30.09154,-2.5196424
2194,-7.943872,-20.135902,2.146661
2195,-6.75105,-19.24966,7.0286174
2196,-6.75105,-19.24966,7.0286174
2197,-6.75105,-19.24966,7.0286174
2198,4.816752,-18.813568,7.1222367
2199,12.841681,-18.44238,1.875973
2200,12.841681,-18.44238,1.875973
2201,12.841681,-18.44238,1.875973
2202,6.6828547,-13.126726,-2.5387847
2203,0.55752766,-5.1616178,-3.6143587
2204,0.55752766,-5.1616178,-3.6143587
2205,-4.9495535,6.684051,-8.506186
2206,-4.9495535,6.684051,-8.506186
2207,-4.621438,13.473087,-16.11895
2208,-4.621438,13.473087,-16.11895
2209,-4.621438,13.473087,-16.11895
2210,-4.621438,13.473087,-16.11895
2211,-0.096311115,0.76959157,1.4976078
2212,-0.096311115,0.76959157,1.4976078
2213,-0.096311115,0.76959157,1.4976078
2214,-0.096311115,0.76959157,1.4976078
2215,-0.66400826,-2.8689942,5.7616177
2216,11.950654,-10.922637,4.4871407
2217,11.950654,-10.922637,4.4871407
2218,11.950654,-10.922637,4.4871407
2219,11.950654,-10.922637,4.4871407
2220,-2.5995028,-12.783954,-5.494818
2221,-8.787043,-13.07857,-9.600902
2222,-5.8453665,-16.966608,-17.254345
2223,-5.8453665,-16.966608,-17.254345
2224,-5.8453665,-16.966608,-17.254345
2225,-5.8453665,-16.966608,-17.254345
2226,0.32063824,-14.03211,-2.5028925
2227,0.32063824,-14.03211,-2.5028925
2228,0.32063824,-14.03211,-2.5028925
2229,0.32063824,-14.03211,-2.5028925
2230,-1.3971093,-20.2699,0.3379862
2231,-1.3971093,-20.2699,0.3379862
2232,-0.72382885,-31.584063,-5.9380884
2233,-0.939482,-25.552055,-5.22413
2234,-0.939482,-25.552055,-5.22413
2235,-14.133805,-14.5926285,13.484453
2236,-14.133805,-14.5926285,13.484453
2237,-14.133805,-14.5926285,13.484453
2238,-14.133805,-14.5926285,13.484453
2239,-13.836796,-10.791032,10.840085
2240,-13.836796,-10.791032,10.840085
2241,-6.4181485,-8.232507,7.5556364
2242,14.348561,1.3133606,9.09123
2243,14.348561,1.3133606,9.09123
2244,14.348561,1.3133606,9.09123
2245,14.348561,1.3133606,9.09123
2246,14.700605,-1.4916258,8.176275
2247,13.558032,-3.0176485,4.8918266
2248,10.889437,-2.5193431,2.5468607
2249,3.8324046,0.48933223,3.6750765
2250,3.8324046,0.48933223,3.6750765
2251,2.3207388,0.38165522,6.329315
2252,-3.5027933,-1.4796617,13.860724
2253,-9.306884,-4.165007,4.1757746
2254,-9.306884,-4.165007,4.1757746
2255,-8.772686,-5.480162,1.4641083
2256,-3.7663028,-12.906287,-10.204492
2257,-2.024627,-16.04926,-10.053743
2258,-1.1216356,-22.12643,3.3661032
2259,-0.98016,-31.389944,4.666602
2260,-2.1589243,-37.48895,-0.92183495
2261,-4.4656053,-38.15954,-0.6056832
2262,-13.863117,-29.686853,0.8913264
2263,-13.863117,-29.686853,0.8913264
2264,-11.501401,-22.34687,3.478566
2265,-10.979168,-21.302402,4.1494536
2266,-8.808877,-18.691235,4.9543395
2267,-4.1350965,-18.063717,4.606782
2268,4.8191447,-17.591732,4.482355
2269,11.931511,-17.012072,4.2595234
2270,13.569996,-17.733208,1.8783658
2271,13.342379,-17.771494,0.78364944
2272,-0.695115,-6.7187467,-3.7773697
2273,-0.695115,-6.7187467,-3.7773697
2274,-0.695115,-6.7187467,-3.7773697
2275,-2.9949167,-2.2677977,-7.171888
2276,-2.9949167,-2.2677977,-7.171888
2277,-6.7725854,5.311468,-8.491829
2278,-7.4359956,11.539986,-9.445069
2279,-7.2708907,12.900604,-11.593824
2280,-7.196414,14.169996,-20.478674
2281,-4.482355,14.586946,-16.538292
2282,-0.94426763,11.276476,-6.541678
2283,-0.94426763,11.276476,-6.541678
2284,1.2978072,2.367399,-1.1111671
2285,-0.6305088,-4.6298127,14.821143
2286,-0.6305088,-4.6298127,14.821143
2287,9.22463,-9.375379,20.42663
2288,9.22463,-9.375379,20.42663
2289,6.477072,-11.770893,14.806787
2290,6.477072,-11.770893,14.806787
2291,-6.020342,-8.407481,-10.578071
2292,-5.3976097,-17.975183,24.089443
2293,-9.115458,-24.912575,-29.82115
2294,-15.540187,-27.791739,-40.404606
2295,-0.65922266,-12.704991,1.3657036
2296,-0.65922266,-12.704991,1.3657036
2297,-0.65922266,-12.704991,1.3657036
2298,5.2624154,-16.786848,-4.234997
2299,5.2624154,-16.786848,-4.234997
2300,5.2624154,-16.786848,-4.234997
2301,0.43788654,-22.332512,-6.4866433
2302,0.43788654,-22.332512,-6.4866433
2303,-0.613759,-30.515667,-9.442677
2304,-0.6759724,-29.557343,-4.6636114
2305,-1.9935204,-26.845675,3.4737802
2306,-1.9935204,-26.845675,3.4737802
2307,-10.135697,-10.802996,10.353744
2308,-10.135697,-10.802996,10.353744
2309,-10.135697,-10.802996,10.353744
2310,-10.135697,-10.802996,10.353744
2311,-6.2120667,-9.8015995,10.269695
2312,12.887444,0.57816577,6.544669
2313,12.887444,0.57816577,6.544669
2314,12.887444,0.57816577,6.544669
2315,12.887444,0.57816577,6.544669
2316,15.814464,2.1661026,5.773582
2317,15.90569,1.7518452,2.5707889
2318,14.465809,0.9924232,-0.0020937198
2319,13.723436,0.6643074,0.3499503
2320,12.094522,0.077467635,2.2447667
2321,-10.416256,-5.453841,5.131408
2322,-10.416256,-5.453841,5.131408
2323,-10.416256,-5.453841,5.131408
2324,-10.416256,-5.453841,5.131408
2325,-7.2493553,-11.868999,-4.6372905
2326,-7.2493553,-11.868999,-4.6372905
2327,-4.424927,-15.771393,-7.519146
2328,-4.424927,-15.771393,-7.519146
2329,-4.0130625,-29.523842,1.346561
2330,-4.0130625,-29.523842,1.346561
2331,-8.8447695,-21.060429,3.4331024
2332,-8.8447695,-21.060429,3.4331024
2333,-8.8447695,-21.060429,3.4331024
2334,-8.8447695,-21.060429,3.4331024
2335,-8.703294,-19.15604,4.5158544
2336,-4.065705,-17.881563,4.2595234
2337,-4.065705,-17.881563,4.2595234
2338,7.494919,-17.65664,4.8655057
2339,7.494919,-17.65664,4.8655057
2340,13.124333,-17.970398,0.7932207
2341,13.124333,-17.970398,0.7932207
2342,7.217052,-13.792529,-2.102992
2343,3.405884,-10.249656,-2.2947168
2344,0.13848461,-3.0080771,-6.1154566
2345,0.13848461,-3.0080771,-6.1154566
2346,-6.324529,14.1364975,-21.458534
2347,-6.324529,14.1364975,-21.458534
2348,-6.324529,14.1364975,-21.458534
2349,-6.324529,14.1364975,-21.458534
2350,-6.192924,14.311472,-21.444178
2351,-1.5717853,8.056933,-2.3377876
2352,-1.5717853,8.056933,-2.3377876
2353,-1.5717853,8.056933,-2.3377876
2354,-0.52522457,-0.35623148,0.8865408
2355,-0.48903313,-1.4246268,2.0485554
2356,0.75643104,-7.4563346,22.867607
2357,9.284451,-11.430513,16.555641
2358,9.284451,-11.430513,16.555641
2359,9.284451,-11.430513,16.555641
2360,-5.716154,-12.728919,-8.34796
2361,-7.9965143,-12.194721,-9.598509
2362,-8.303393,-22.936102,10.162019
2363,-13.139887,-25.971397,-35.553757
2364,-10.164711,-20.727528,-16.207785
2365,0.39960137,-11.13829,-4.031308
2366,0.39960137,-11.13829,-4.031308
2367,0.39960137,-11.13829,-4.031308
2368,0.39960137,-11.13829,-4.031308
2369,2.047658,-21.20669,-2.7352953
2370,2.047658,-21.20669,-2.7352953
2371,-0.06281159,-25.877779,-3.4229329
2372,0.51206404,-31.526335,-6.690332
2373,0.95054877,-32.146973,-7.6749787
2374,-1.4114662,-26.510382,-2.0240288
2375,-1.4114662,-26.510382,-2.0240288
2376,-15.192629,-13.416556,11.2088785
2377,-15.192629,-13.416556,11.2088785
2378,-15.192629,-13.416556,11.2088785
2379,-15.192629,-13.416556,11.2088785
2380,-4.7988057,-8.659027,6.192625
2381,-0.6376872,-7.2529445,4.5852466
2382,14.030017,0.6332007,8.585747
2383,14.030017,0.6332007,8.585747
2384,14.030017,0.6332007,8.585747
2385,14.030017,0.6332007,8.585747
2386,15.225231,-1.1324034,7.699505
2387,10.27149,-2.044966,3.0690942
2388,10.27149,-2.044966,3.0690942
2389,3.7893338,-0.08793623,5.035695
2390,3.7893338,-0.08793623,5.035695
2391,-10.380065,-4.9052863,3.1743784
2392,-10.380065,-4.9052863,3.1743784
2393,-10.380065,-4.9052863,3.1743784
2394,-10.380065,-4.9052863,3.1743784
2395,-5.256134,-12.927822,-8.34796
2396,-5.256134,-12.927822,-8.34796
2397,-3.723232,-14.817853,-10.812866
2398,-3.234498,-15.831214,-9.780663
2399,-5.165207,-37.347473,-1.3555341
2400,-5.165207,-37.347473,-1.3555341
2401,-9.136993,-22.433012,3.7636108
2402,-9.136993,-22.433012,3.7636108
2403,-9.136993,-22.433012,3.7636108
2404,-9.136993,-22.433012,3.7636108
2405,-9.122637,-21.541985,3.9146578
2406,-8.914162,-21.093927,4.0271206
2407,-1.8595223,-19.889141,4.8990054
2408,-0.42681974,-19.901106,4.9926243
2409,8.189734,-18.870996,4.3935213
2410,11.98176,-18.284157,3.6104703
2411,3.8036907,-10.436595,-4.0145583
2412,3.8036907,-10.436595,-4.0145583
2413,3.8036907,-10.436595,-4.0145583
2414,-2.0078773,-4.5652065,-7.0112696
2415,-7.596614,10.191031,-8.9013
2416,-7.596614,10.191031,-8.9013
2417,-7.596614,10.191031,-8.9013
2418,-7.596614,10.191031,-8.9013
2419,-3.545864,15.652948,-18.888344
2420,-3.545864,15.652948,-18.888344
2421,-3.545864,15.652948,-18.888344
2422,0.4642076,7.9633136,-3.784548
2423,1.2355938,4.4491544,-2.141277
2424,1.2355938,4.4491544,-2.141277
2425,-0.0317049,-3.784249,5.581857
2426,0.15284155,-7.719844,21.233908
2427,0.15284155,-7.719844,21.233908
2428,-8.090134,-14.621343,-12.9353
2429,-8.090134,-14.621343,-12.9353
2430,-8.090134,-14.621343,-12.9353
2431,-8.090134,-14.621343,-12.9353
2432,-3.205784,-12.058331,23.979374
2433,-3.1169505,-19.120148,21.689142
2434,-10.617253,-19.575382,-20.256142
2435,-6.966703,-15.234802,-13.040883
2436,-6.966703,-15.234802,-13.040883
2437,-1.1455638,-10.079466,-7.818548
2438,-1.1455638,-10.079466,-7.818548
2439,-1.4330016,-13.8356,-6.800402
2440,-1.4330016,-13.8356,-6.800402
2441,0.035593238,-23.788845,3.6511483
2442,-0.15134603,-32.56123,-5.6099725
2443,-0.15134603,-32.56123,-5.6099725
2444,-7.4937224,-25.264618,19.09233
2445,-7.4937224,-25.264618,19.09233
2446,-7.4937224,-25.264618,19.09233
2447,-7.4937224,-25.264618,19.09233
2448,-16.936697,-17.555841,12.349058
2449,-16.936697,-17.555841,12.349058
2450,5.81097,-5.7317076,5.241777
2451,5.81097,-5.7317076,5.241777
2452,5.81097,-5.7317076,5.241777
2453,5.81097,-5.7317076,5.241777
2454,16.04926,1.4069797,7.903194
2455,16.04926,1.4069797,7.903194
2456,16.04926,1.4069797,7.903194
2457,14.490037,-0.7322037,2.1227329
2458,14.490037,-0.7322037,2.1227329
2459,1.3624134,-2.2462623,13.76232
2460,1.3624134,-2.2462623,13.76232
2461,1.3624134,-2.2462623,13.76232
2462,1.3624134,-2.2462623,13.76232
2463,-5.091029,-3.6044881,16.141085
2464,-13.120744,-5.7341003,1.7419748
2465,-13.120744,-5.7341003,1.7419748
2466,-10.535897,-7.9259257,0.14895321
2467,-7.931908,-11.289337,-4.069593
2468,0.49052864,-38.648273,-1.0752747
2469,0.49052864,-38.648273,-1.0752747
2470,0.49052864,-38.648273,-1.0752747
2471,0.49052864,-38.648273,-1.0752747
2472,-10.212567,-22.600807,1.8496519
2473,-10.212567,-22.600807,1.8496519
2474,-10.212567,-22.600807,1.8496519
2475,-10.212567,-22.600807,1.8496519
2476,-7.2062845,-19.690239,3.708576
2477,-5.637191,-18.78964,4.319344
2478,-0.7477571,-18.13311,3.411567
2479,9.78515,-17.697317,2.9108686
2480,9.78515,-17.697317,2.9108686
2481,9.78515,-17.697317,2.9108686
2482,-1.320539,0.118145615,-7.305886
2483,-1.320539,0.118145615,-7.305886
2484,-1.320539,0.118145615,-7.305886
2485,-1.320539,0.118145615,-7.305886
2486,-4.88734,10.095319,-11.958131
2487,-4.88734,10.095319,-11.958131
2488,-5.232206,14.426328,-10.496715
2489,-5.232206,14.426328,-10.496715
2490,-5.232206,14.426328,-10.496715
2491,-5.232206,14.426328,-10.496715
2492,-2.6210382,7.6519475,-2.7017958
2493,-2.6210382,7.6519475,-2.7017958
2494,-0.64008003,0.005383851,0.5512465
2495,-0.40528435,-2.7182465,4.714758
2496,-0.40528435,-2.7182465,4.714758
2497,0.035593238,-7.494919,27.438498
2498,0.933799,-3.6260235,-28.616364
2499,0.933799,-3.6260235,-28.616364
2500,0.933799,-3.6260235,-28.616364
2501,0.933799,-3.6260235,-28.616364
2502,-16.24906,-21.264118,-26.429325
2503,-16.24906,-21.264118,-26.429325
2504,-16.24906,-21.264118,-26.429325
2505,-19.008883,-33.234512,-30.180672
2506,-19.880768,-37.12464,-29.088348
2507,9.598209,-15.97239,4.820042
2508,9.598209,-15.97239,4.820042
2509,9.598209,-15.97239,4.820042
2510,9.598209,-15.97239,4.820042
2511,3.2117662,-22.14318,-1.9902302
2512,3.2117662,-22.14318,-1.9902302
2513,1.0654043,-24.10051,-9.814162
2514,0.12412767,-26.929424,-14.391931
2515,-15.163916,-19.769201,16.77608
2516,-15.163916,-19.769201,16.77608
2517,-15.163916,-19.769201,16.77608
2518,-15.621543,-17.163118,10.5741825
2519,-1.5406786,-9.164511,10.919048
2520,-1.5406786,-9.164511,10.919048
2521,-1.5406786,-9.164511,10.919048
2522,0.15284155,-8.544171,10.214661
2523,9.852148,-3.8344984,5.7206407
2524,12.477673,-0.9693923,6.020342
2525,12.786646,0.024526432,5.9817576
2526,12.683755,1.6175481,4.8966126
2527,12.111272,1.1434702,3.598207
2528,4.7712884,-0.66041905,8.609675
2529,4.7712884,-0.66041905,8.609675
2530,4.7712884,-0.66041905,8.609675
2531,4.7712884,-0.66041905,8.609675
2532,-2.7218359,-1.4365909,13.283456
2533,-4.032205,-1.8101703,13.146766
2534,-2.6162524,-14.676377,-8.82473
2535,-2.6162524,-14.676377,-8.82473
2536,-2.6162524,-14.676377,-8.82473
2537,-2.6162524,-14.676377,-8.82473
2538,-2.1589243,-34.060932,-0.13609178
2539,-2.1589243,-34.060932,-0.13609178
2540,-2.1589243,-34.060932,-0.13609178
2541,-2.1589243,-34.060932,-0.13609178
2542,-11.082059,-30.486954,-0.0738784
2543,-8.025527,-19.304695,6.952047
2544,-8.025527,-19.304695,6.952047
2545,-8.025527,-19.304695,6.952047
2546,-8.025527,-19.304695,6.952047
2547,10.199706,-18.233908,6.6981087
2548,10.199706,-18.233908,6.6981087
2549,10.199706,-18.233908,6.6981087
2550,11.406884,-18.015862,5.593821
2551,12.010474,-18.293728,0.78843504
2552,8.084451,-14.49213,-2.2178476
2553,5.535496,-12.364911,-2.0093727
2554,0.43070808,-5.9617176,-2.5749762
2555,-3.1432717,-1.7240287,-4.8433723
2556,-3.1432717,-1.7240287,-4.8433723
2557,-7.2493553,12.364014,-9.746864
2558,-7.2493553,12.364014,-9.746864
2559,-6.5018973,13.288541,-12.580863
2560,-3.7950168,12.7902355,-18.921843
2561,-1.6965113,12.12204,-15.601502
2562,0.81625164,5.3979087,-2.4861426
2563,0.81625164,5.3979087,-2.4861426
2564,0.81625164,5.3979087,-2.4861426
2565,-0.6448657,-0.65324056,2.2375882
2566,-1.9217356,-5.6503515,15.128023
2567,-1.049851,-6.869495,22.12284
2568,-1.049851,-6.869495,22.12284
2569,11.402099,-10.275977,8.525927
2570,11.402099,-10.275977,8.525927
2571,-5.124529,-15.145969,-9.229416
2572,-3.179164,-19.31666,38.244484
2573,-9.6783695,-29.698818,-9.895518
2574,-9.6783695,-29.698818,-9.895518
2575,-5.2680984,-18.322441,-12.954443
2576,-5.2680984,-18.322441,-12.954443
2577,-0.6376872,-9.969397,-6.922735
2578,-3.423531,-17.158333,-4.107878
2579,-3.423531,-17.158333,-4.107878
2580,-3.423531,-17.158333,-4.107878
2581,-3.5578282,-19.611275,-1.5400804
2582,0.66071814,-29.238798,-5.375177
2583,0.66071814,-29.238798,-5.375177
2584,0.66071814,-29.238798,-5.375177
2585,0.66071814,-29.238798,-5.375177
2586,-13.010375,-17.304295,14.981762
2587,-13.010375,-17.304295,14.981762
2588,-13.010375,-17.304295,14.981762
2589,-13.010375,-17.304295,14.981762
2590,-13.726727,-14.298013,13.0462675
2591,0.0065802624,-7.988139,7.711469
2592,0.0065802624,-7.988139,7.711469
2593,1.5373886,-7.422835,7.2825556
2594,11.1936245,-1.8894325,4.968696
2595,14.472988,1.0546366,8.492427
2596,14.472988,1.0546366,8.492427
2597,7.2409806,-0.16689938,2.8223343
2598,7.2409806,-0.16689938,2.8223343
2599,7.2409806,-0.16689938,2.8223343
2600,7.2409806,-0.16689938,2.8223343
2601,1.695614,-0.45194438,9.742677
2602,1.695614,-0.45194438,9.742677
2603,-1.5526428,-1.599602,9.88176
2604,-7.251748,-4.232006,1.5981064
2605,-7.251748,-4.232006,1.5981064
2606,-7.251748,-4.232006,1.5981064
2607,-1.9002002,-18.257835,-2.754438
2608,-1.9002002,-18.257835,-2.754438
2609,-1.9002002,-18.257835,-2.754438
2610,-4.0968113,-34.58556,-1.6286149
2611,-7.673184,-37.543987,-1.5520446
2612,-14.26571,-34.33162,-0.44775695
2613,-14.193925,-28.948967,-0.42382872
2614,-10.976775,-21.077179,1.2556337
2615,-10.976775,-21.077179,1.2556337
2616,1.4153546,-16.569101,5.1266227
2617,1.4153546,-16.569101,5.1266227
2618,1.4153546,-16.569101,5.1266227
2619,1.4153546,-16.569101,5.1266227
2620,9.41157,-15.548561,-1.8658035
2621,9.41157,-15.548561,-1.8658035
2622,9.41157,-15.548561,-1.8658035
2623,9.41157,-15.548561,-1.8658035
2624,7.4494553,-14.04886,-1.5999011
2625,2.129014,-6.7426753,-3.525824
2626,-1.7491534,-0.20279172,-8.760123
2627,-4.267001,3.9269211,-8.218747
2628,-5.742475,9.09153,-6.4052873
2629,-5.742475,9.09153,-6.4052873
2630,-6.168996,13.8347025,-18.931414
2631,-0.6520442,10.739885,-3.2742786
2632,-0.6520442,10.739885,-3.2742786
2633,-0.6520442,10.739885,-3.2742786
2634,-0.005383851,-2.7014968,11.481959
2635,-0.005383851,-2.7014968,11.481959
2636,-0.005383851,-2.7014968,11.481959
2637,-0.005383851,-2.7014968,11.481959
2638,2.696711,-6.9726853,20.429022
2639,3.6143587,-8.920144,-1.3100704
2640,3.6143587,-8.920144,-1.3100704
2641,3.6143587,-8.920144,-1.3100704
2642,-9.752547,-8.82443,12.679567
2643,-9.752547,-8.82443,12.679567
2644,-0.07238288,-15.553348,-2.4502504
2645,-0.07238288,-15.553348,-2.4502504
2646,-0.07238288,-15.553348,-2.4502504
2647,-0.07238288,-15.553348,-2.4502504
2648,6.579963,-9.32483,2.2666013
2649,6.579963,-9.32483,2.2666013
2650,2.9075787,-10.120144,-3.813262
2651,2.9075787,-10.120144,-3.813262
2652,-3.0116663,-20.48316,-3.3966117
2653,-4.228417,-23.906391,-3.4420755
2654,-4.267001,-30.410084,-6.9323063
2655,-3.452544,-30.034111,-6.268597
2656,-3.6870406,-24.533909,-0.59611195
2657,-3.6870406,-24.533909,-0.59611195
2658,-7.4216385,-19.409979,14.564813
2659,-7.970193,-10.407582,8.065906
2660,-7.970193,-10.407582,8.065906
2661,-7.970193,-10.407582,8.065906
2662,-7.970193,-10.407582,8.065906
2663,10.1348,-0.6723832,6.980761
2664,10.1348,-0.6723832,6.980761
2665,10.1348,-0.6723832,6.980761
2666,10.1348,-0.6723832,6.980761
2667,12.599707,0.8006983,9.143872
2668,13.5532465,-0.51445687,7.222735
2669,12.925729,-0.89760756,4.221238
2670,11.181661,-0.73459655,3.1337004
2671,11.181661,-0.73459655,3.1337004
2672,5.08744,-0.22432712,4.7362933
2673,3.0466614,-0.40648076,5.5986066
2674,-3.0762727,-1.5203397,7.670791
2675,-4.8442693,-2.0162523,7.5053873
2676,-4.8442693,-2.0162523,7.5053873
2677,-6.5138617,-6.675676,4.7841496
2678,-3.5099716,-14.777175,-7.2006016
2679,-7.1102724,-35.677883,-1.6214365
2680,-7.1102724,-35.677883,-1.6214365
2681,-7.1102724,-35.677883,-1.6214365
2682,-7.1102724,-35.677883,-1.6214365
2683,-10.706087,-34.516167,-0.70169526
2684,-10.706087,-34.516167,-0.70169526
2685,-9.81476,-24.835705,1.2723835
2686,-9.81476,-24.835705,1.2723835
2687,-5.6204414,-17.965612,5.239384
2688,7.0950184,-17.622839,6.192625
2689,7.0950184,-17.622839,6.192625
2690,7.0950184,-17.622839,6.192625
2691,7.0950184,-17.622839,6.192625
2692,9.377771,-16.628922,-1.00349
2693,-2.2642083,-4.1865425,-5.1762733
2694,-2.2642083,-4.1865425,-5.1762733
2695,-2.2642083,-4.1865425,-5.1762733
2696,-2.2642083,-4.1865425,-5.1762733
2697,-5.785546,4.9666023,-8.99492
2698,-5.785546,4.9666023,-8.99492
2699,-5.785546,4.9666023,-8.99492
2700,-6.084948,7.3621173,-7.9887376
2701,-7.021738,12.514762,-13.352249
2702,-5.2226343,13.235898,-16.298712
2703,-2.71705,12.399906,-8.73141
2704,-2.71705,12.399906,-8.73141
2705,2.8118658,1.306182,-0.052342996
2706,2.8118658,1.306182,-0.052342996
2707,2.2872393,-2.8689942,5.0333023
2708,2.2872393,-2.8689942,5.0333023
2709,5.0922256,-8.182257,18.45285
2710,10.980364,-10.139287,11.872289
2711,4.610969,-13.361522,14.816358
2712,-10.097412,-15.812071,-0.49800622
2713,-6.8802624,-13.454842,14.18884
2714,-5.5220366,-12.5805645,-5.8854465
2715,-5.5220366,-12.5805645,-5.8854465
2716,-5.5220366,-12.5805645,-5.8854465
2717,-5.5220366,-12.5805645,-5.8854465
2718,-1.3540385,-10.70489,-2.7017958
2719,-0.63529444,-13.32533,-4.165605
2720,-0.63529444,-13.32533,-4.165605
2721,-0.63529444,-13.32533,-4.165605
2722,-0.2832504,-19.865213,1.2795619
2723,-0.2832504,-19.865213,1.2795619
2724,-1.3899308,-25.458736,-2.4478576
2725,0.552742,-30.982567,-8.515757
2726,0.552742,-30.982567,-8.515757
2727,0.08344969,-29.346474,-7.5957165
2728,-5.8357954,-23.85375,16.19881
2729,-12.768401,-15.519848,11.206486
2730,-12.768401,-15.519848,11.206486
2731,-11.613864,-12.467802,8.26481
2732,0.907478,-6.2324057,4.6498528
2733,0.907478,-6.2324057,4.6498528
2734,0.907478,-6.2324057,4.6498528
2735,3.3317065,-4.3495536,4.6764727
2736,4.395316,-3.6834514,4.8248277
2737,8.879765,-0.8353942,6.47767
2738,13.646566,-0.9909277,3.73729
2739,13.646566,-0.9909277,3.73729
2740,13.646566,-0.9909277,3.73729
2741,13.3687,-0.51445687,3.6248271
2742,9.950553,-0.60777694,6.7890363
2743,9.950553,-0.60777694,6.7890363
2744,-1.2915261,-2.5719852,9.302098
2745,-9.685548,-3.8751762,2.6210382
2746,-9.685548,-3.8751762,2.6210382
2747,-9.685548,-3.8751762,2.6210382
2748,-6.0394845,-10.954043,-3.0466614
2749,-6.0394845,-10.954043,-3.0466614
2750,-5.388038,-29.25794,1.4494523
2751,-5.388038,-29.25794,1.4494523
2752,-5.7951174,-34.25984,-3.350849
2753,-6.0753765,-32.496624,-2.5435705
2754,-9.843474,-24.706491,-0.097806625
2755,-9.843474,-24.706491,-0.097806625
2756,-10.698908,-22.24637,1.602892
2757,-0.53240305,-19.769201,3.2150564
2758,-0.53240305,-19.769201,3.2150564
2759,-0.53240305,-19.769201,3.2150564
2760,-0.53240305,-19.769201,3.2150564
2761,4.857729,-18.351154,4.566104
2762,8.467601,-17.560627,3.6224344
2763,8.467601,-17.560627,3.6224344
2764,9.938589,-15.277873,-0.81655073
2765,6.608677,-13.42852,-1.547259
2766,2.2752752,-8.728418,-2.1556342
2767,2.2752752,-8.728418,-2.1556342
2768,-5.3039904,4.11386,-6.9442706
2769,-5.3039904,4.11386,-6.9442706
2770,-3.2249267,12.141182,-15.757336
2771,-3.2249267,12.141182,-15.757336
2772,-3.2249267,12.141182,-15.757336
2773,-3.2249267,12.141182,-15.757336
2774,-1.4306089,11.769696,-8.76491
2775,-0.73818576,11.61177,-7.600502
2776,1.585245,3.7737803,-1.3363914
2777,1.585245,3.7737803,-1.3363914
2778,1.585245,3.7737803,-1.3363914
2779,0.39481574,-2.5049863,19.665113
2780,8.891729,-10.494022,26.331518
2781,8.891729,-10.494022,26.331518
2782,-9.920343,-8.848359,46.92086
2783,-9.920343,-8.848359,46.92086
2784,-9.920343,-8.848359,46.92086
2785,-9.920343,-8.848359,46.92086
2786,-14.483755,-25.923243,-32.600113
2787,-14.483755,-25.923243,-32.600113
2788,-3.3086755,-15.421443,-4.026522
2789,-3.3086755,-15.421443,-4.026522
2790,-3.3086755,-15.421443,-4.026522
2791,1.4919249,-16.676777,5.9841504
2792,1.4919249,-16.676777,5.9841504
2793,2.6799614,-18.073288,3.5766716
2794,1.5924234,-23.192434,-4.6468616
2795,-1.5888343,-24.462126,6.0729837
2796,-1.5888343,-24.462126,6.0729837
2797,-1.5888343,-24.462126,6.0729837
2798,-1.5888343,-24.462126,6.0729837
2799,-1.5888343,-24.462126,6.0729837
2800,-13.036696,-18.784855,19.408783
2801,-13.523037,-16.111473,13.395919
2802,-13.523037,-16.111473,13.395919
2803,-8.219346,-10.436595,9.754641
2804,-2.297708,-8.323732,6.7172513
2805,2.4116662,-6.3903317,4.820042
2806,2.4116662,-6.3903317,4.820042
2807,10.714461,-0.15972091,6.5111694
2808,12.147164,0.92542416,8.916255
2809,12.607184,-0.2940181,7.9055867
2810,12.607184,-0.2940181,7.9055867
2811,11.926725,-1.6331015,3.9361932
2812,6.6038914,-0.032901313,5.5052867
2813,6.6038914,-0.032901313,5.5052867
2814,3.5617166,-0.17407785,8.899506
2815,1.7195421,-0.6652047,9.912866
2816,-3.6176488,-2.3901308,7.344769
2817,-6.451648,-3.499204,5.2896338
2818,-7.8074813,-4.0980077,4.5565324
2819,-4.8562336,-12.192328,-3.5904303
2820,-3.2201412,-36.32933,-1.6573287
2821,-3.2201412,-36.32933,-1.6573287
2822,-3.2201412,-36.32933,-1.6573287
2823,-3.2201412,-36.32933,-1.6573287
2824,-9.6783695,-22.171894,1.9645073
2825,-9.6783695,-22.171894,1.9645073
2826,-9.6783695,-22.171894,1.9645073
2827,-9.6783695,-22.171894,1.9645073
2828,-8.439785,-17.941683,7.349854
2829,-8.439785,-17.941683,7.349854
2830,-8.439785,-17.941683,7.349854
2831,-1.971985,-17.033607,5.418846
2832,-1.971985,-17.033607,5.418846
2833,-1.971985,-17.033607,5.418846
2834,-1.971985,-17.033607,5.418846
2835,-1.971985,-17.033607,5.418846
2836,-1.4353945,-3.9951165,-4.6396832
2837,-1.4353945,-3.9951165,-4.6396832
2838,-1.4353945,-3.9951165,-4.6396832
2839,-2.6401806,0.11096715,-5.9620166
2840,-6.957132,10.7590275,-4.7620163
2841,-6.957132,10.7590275,-4.7620163
2842,-6.957132,10.7590275,-4.7620163
2843,-6.5282183,15.571592,-14.636298
2844,3.865904,6.2147584,-2.838486
2845,3.865904,6.2147584,-2.838486
2846,3.865904,6.2147584,-2.838486
2847,3.6693935,4.5592246,-1.6525432
2848,3.0634112,3.5605202,-1.058525
2849,-3.3110683,-12.87518,18.464813
2850,-3.3110683,-12.87518,18.464813
2851,-3.3110683,-12.87518,18.464813
2852,-3.3110683,-12.87518,18.464813
2853,-10.636395,-15.102899,5.038088
2854,-8.576474,-16.564016,24.48725
2855,-8.576474,-16.564016,24.48725
2856,-9.5919285,-23.422443,-20.191236
2857,0.2940181,-13.318151,-3.7534413
2858,0.2940181,-13.318151,-3.7534413
2859,0.2940181,-13.318151,-3.7534413
2860,0.2940181,-13.318151,-3.7534413
2861,2.8501508,-12.362518,-5.2459645
2862,2.8501508,-12.362518,-5.2459645
2863,2.7424738,-17.108084,0.48185465
2864,-2.3670998,-26.33062,-1.1614163
2865,-1.7156538,-29.51427,-5.7583275
2866,-1.7156538,-29.51427,-5.7583275
2867,-1.1048858,-28.616066,-8.865408
2868,-3.7830527,-23.52055,7.5580297
2869,-14.107484,-18.375084,13.479668
2870,-14.107484,-18.375084,13.479668
2871,-14.107484,-18.375084,13.479668
2872,-9.165708,-11.524133,9.100801
2873,-6.005985,-10.139287,8.57139
2874,-6.005985,-10.139287,8.57139
2875,0.97926265,-6.253941,6.30778
2876,6.2327046,-1.9971097,5.500501
2877,10.01516,0.76719874,9.148658
2878,10.01516,0.76719874,9.148658
2879,10.01516,0.76719874,9.148658
2880,10.724033,-0.01375873,8.89472
2881,9.6173525,-0.92153585,2.5851457
2882,9.6173525,-0.92153585,2.5851457
2883,-4.549653,-2.548057,7.919944
2884,-4.549653,-2.548057,7.919944
2885,-4.549653,-2.548057,7.919944
2886,-4.549653,-2.548057,7.919944
2887,-4.549653,-2.548057,7.919944
2888,-7.522436,-7.6049886,-0.6583253
2889,-7.522436,-7.6049886,-0.6583253
2890,-3.9050865,-15.769,-8.958728
2891,-4.7865424,-32.204403,-0.26799613
2892,-4.7865424,-32.204403,-0.26799613
2893,-5.110172,-33.52913,-1.9040886
2894,-12.15524,-27.741488,1.5550356
2895,-12.15524,-27.741488,1.5550356
2896,-12.15524,-27.741488,1.5550356
2897,-9.884451,-20.245972,3.8425741
2898,-9.884451,-20.245972,3.8425741
2899,-9.647263,-19.108185,4.252345
2900,9.799506,-16.214365,2.0629122
2901,9.799506,-16.214365,2.0629122
2902,9.799506,-16.214365,2.0629122
2903,9.799506,-16.214365,2.0629122
2904,8.633005,-14.832211,-0.96759766
2905,8.633005,-14.832211,-0.96759766
2906,4.1988053,-13.117155,-1.0250254
2907,-1.5478572,-3.2452657,-5.1667023
2908,-1.5478572,-3.2452657,-5.1667023
2909,-1.5478572,-3.2452657,-5.1667023
2910,-4.518247,4.9307103,-6.599405
2911,-2.7696922,13.611871,-16.035202
2912,-2.7696922,13.611871,-16.035202
2913,-2.7696922,13.611871,-16.035202
2914,-2.7696922,13.611871,-16.035202
2915,-0.54436713,13.192827,-10.053743
2916,-0.54436713,13.192827,-10.053743
2917,0.05712864,-0.111864455,5.3039904
2918,0.05712864,-0.111864455,5.3039904
2919,0.05712864,-0.111864455,5.3039904
2920,0.05712864,-0.111864455,5.3039904
2921,7.1883383,-10.520344,23.504995
2922,-6.9882383,-15.953248,17.844475
2923,-6.9882383,-15.953248,17.844475
2924,-6.9882383,-15.953248,17.844475
2925,-6.9882383,-15.953248,17.844475
2926,-8.255239,-22.2703,-19.606789
2927,-8.255239,-22.2703,-19.606789
2928,-4.491926,-17.474485,-4.5894337
2929,-3.4908292,-15.946069,-4.1632123
2930,1.6621144,-10.328619,-3.566502
2931,2.864508,-10.26162,-2.766402
2932,0.9553344,-13.660924,1.4422739
2933,0.6008976,-14.029717,1.9453648
2934,-2.6258237,-21.915564,-2.5411777
2935,-2.879762,-24.672993,-2.388037
2936,-1.2293127,-29.993433,-4.2924247
2937,-0.8222337,-26.910282,-4.8026943
2938,-0.8222337,-26.910282,-4.8026943
2939,-3.900301,-23.714666,8.132905
2940,-3.900301,-23.714666,8.132905
2941,-12.1504545,-18.518951,15.92573
2942,-12.335001,-15.766607,13.197015
2943,-11.79841,-11.98864,9.701999
2944,-7.795517,-9.571589,8.051549
2945,-0.05802595,-6.7618175,6.7986073
2946,-0.05802595,-6.7618175,6.7986073
2947,12.116057,-0.6963114,6.7387867
2948,12.116057,-0.6963114,6.7387867
2949,12.116057,-0.6963114,6.7387867
2950,12.116057,-0.6963114,6.7387867
2951,11.862119,-1.4796617,5.9291153
2952,7.274779,-1.8942182,8.741579
2953,7.274779,-1.8942182,8.741579
2954,7.274779,-1.8942182,8.741579
2955,-8.039884,-3.839284,3.3804603
2956,-8.039884,-3.839284,3.3804603
2957,-8.039884,-3.839284,3.3804603
2958,-8.039884,-3.839284,3.3804603
2959,-4.5879383,-12.882359,-5.7559347
2960,-4.5879383,-12.882359,-5.7559347
2961,-4.983053,-17.920147,-0.39481574
2962,-3.9433718,-24.337698,4.6908298
2963,-3.112165,-33.119358,-3.0346973
2964,-4.403392,-33.277584,-1.9351953
2965,-10.0112705,-20.229221,1.1500504
2966,-10.0112705,-20.229221,1.1500504
2967,-10.0112705,-20.229221,1.1500504
2968,-10.0112705,-20.229221,1.1500504
2969,0.8138588,-15.713666,2.0509481
2970,0.8138588,-15.713666,2.0509481
2971,0.8138588,-15.713666,2.0509481
2972,0.8138588,-15.713666,2.0509481
2973,2.5148566,-15.316158,1.9118652
2974,6.5033927,-15.294623,1.6507485
2975,8.091629,-14.803496,0.7118647
2976,6.6038914,-13.282259,-0.12891331
2977,5.5163536,-12.060723,-0.30867413
2978,-2.8319056,4.4515476,-6.3717875
2979,-2.8319056,4.4515476,-6.3717875
2980,-2.8319056,4.4515476,-6.3717875
2981,-1.8930218,14.800206,-20.251356
2982,-1.8930218,14.800206,-20.251356
2983,-1.8930218,14.800206,-20.251356
2984,-3.696612,15.09243,-14.837295
2985,-3.696612,15.09243,-14.837295
2986,-0.369392,0.6523433,2.664109
2987,-0.369392,0.6523433,2.664109
2988,-0.369392,0.6523433,2.664109
2989,-0.369392,0.6523433,2.664109
2990,1.6091732,-5.2238307,21.737
2991,6.6708903,-7.961818,13.72882
2992,7.940582,-8.522337,12.18874
2993,-11.335998,-14.403296,-1.029811
2994,-11.335998,-14.403296,-1.029811
2995,-7.6803627,-23.106293,26.317162
2996,-7.6803627,-23.106293,26.317162
2997,-5.907879,-23.73381,-25.449463
2998,-5.907879,-23.73381,-25.449463
2999,0.8811569,-10.786246,-5.4876394
3000,0.8811569,-10.786246,-5.4876394
3001,0.8811569,-10.786246,-5.4876394
3002,0.8811569,-10.786246,-5.4876394
3003,-3.5673995,-29.698818,-5.47089
3004,-3.5673995,-29.698818,-5.47089
3005,-3.5673995,-29.698818,-5.47089
3006,-3.5673995,-29.698818,-5.47089
3007,-1.1647065,-29.389545,-6.721439
3008,-0.56829536,-26.886353,-5.593223
3009,-3.6080775,-23.673988,8.530712
3010,-5.3856454,-22.768604,14.564813
3011,-10.974382,-19.522741,16.004694
3012,-13.182958,-16.741385,13.309777
3013,-11.889338,-12.465409,9.548858
3014,-9.03141,-10.177871,8.226524
3015,7.279565,-2.804388,6.436992
3016,7.279565,-2.804388,6.436992
3017,7.279565,-2.804388,6.436992
3018,11.023734,0.85842514,7.565208
3019,11.023734,0.85842514,7.565208
3020,10.551749,-1.204188,1.6100706
3021,10.551749,-1.204188,1.6100706
3022,4.060022,-0.9023932,12.234203
3023,4.060022,-0.9023932,12.234203
3024,4.060022,-0.9023932,12.234203
3025,4.060022,-0.9023932,12.234203
3026,-4.147061,-2.574378,6.908976
3027,-4.147061,-2.574378,6.908976
3028,-6.4995046,-3.0846474,3.5934215
3029,-1.5335002,-18.96671,-3.2216365
3030,-1.5335002,-18.96671,-3.2216365
3031,-1.5335002,-18.96671,-3.2216365
3032,-1.5335002,-18.96671,-3.2216365
3033,-1.1120644,-36.164223,1.8999012
3034,-10.416256,-24.466911,1.998306
3035,-10.416256,-24.466911,1.998306
3036,-10.416256,-24.466911,1.998306
3037,-10.416256,-24.466911,1.998306
3038,-9.122637,-22.524239,3.6463625
3039,-10.655539,-18.387047,4.38395
3040,-10.789836,-18.317656,4.132405
3041,-9.493823,-17.735601,4.7075796
3042,10.091729,-15.1244335,-0.41156548
3043,10.091729,-15.1244335,-0.41156548
3044,10.091729,-15.1244335,-0.41156548
3045,10.091729,-15.1244335,-0.41156548
3046,9.61496,-14.662021,-1.0896316
3047,5.9668026,-10.90828,-2.5965116
3048,3.501597,-8.819645,-2.3234308
3049,-2.623431,6.1642103,-7.1742806
3050,-2.623431,6.1642103,-7.1742806
3051,-2.623431,6.1642103,-7.1742806
3052,-3.1337004,8.878569,-7.2699933
3053,-4.58076,14.364115,-11.711371
3054,-4.9902315,13.676776,-19.901405
3055,-4.240381,13.451551,-16.76591
3056,-1.2819548,6.6361947,-3.0849466
3057,-1.2819548,6.6361947,-3.0849466
3058,-0.654437,4.4635115,-1.5903298
3059,0.2724827,-0.81625164,0.057726845
3060,-0.23748764,-2.5097718,2.1658037
3061,11.3686,-14.324333,26.003403
3062,11.3686,-14.324333,26.003403
3063,11.3686,-14.324333,26.003403
3064,11.3686,-14.324333,26.003403
3065,-7.8026958,-21.99004,-14.78226
3066,-7.8026958,-21.99004,-14.78226
3067,-7.8026958,-21.99004,-14.78226
3068,-7.8026958,-21.99004,-14.78226
3069,0.09302098,-3.9038901,-9.687043
3070,0.09302098,-3.9038901,-9.687043
3071,0.09302098,-3.9038901,-9.687043
3072,-0.38374892,-4.002295,-10.9375925
3073,-8.873484,-16.02264,0.31405798
3074,-8.873484,-16.02264,0.31405798
3075,-7.024131,-24.814169,7.292127
3076,-0.64247286,-32.752956,-4.1632123
3077,-0.64247286,-32.752956,-4.1632123
3078,3.8874395,-27.743881,-6.9993052
3079,3.8874395,-27.743881,-6.9993052
3080,2.7496524,-26.213371,-1.4656038
3081,-3.1193435,-22.04986,16.660925
3082,-3.1193435,-22.04986,16.660925
3083,-10.818549,-14.410476,13.31217
3084,-11.29532,-11.717952,8.760722
3085,-8.358429,-8.390732,8.516355
3086,-6.0370917,-7.7703924,9.04816
3087,0.99601245,-5.020142,6.628717
3088,8.493922,-0.60777694,4.6259246
3089,8.493922,-0.60777694,4.6259246
3090,12.022438,1.4859428,5.986543
3091,14.26242,0.4869394,6.206982
3092,13.838291,-2.5671997,4.388736
3093,13.838291,-2.5671997,4.388736
3094,10.690534,-2.7230322,3.5647075
3095,7.1452675,-2.6536403,4.659424
3096,4.8358946,-2.6078775,6.3364935
3097,-3.222534,-3.1540394,15.271592
3098,-11.750554,-3.8847475,-2.1388843
3099,-11.750554,-3.8847475,-2.1388843
3100,-10.703694,-4.404588,-4.881657
3101,-5.2752767,-9.55484,-7.0375905
3102,-4.0010986,-11.677274,-6.7932234
3103,-3.9361932,-20.425732,2.824727
3104,-3.6463625,-25.257439,3.7396827
3105,-7.5942206,-26.759533,0.8147561
3106,-7.5942206,-26.759533,0.8147561
3107,-7.5942206,-26.759533,0.8147561
3108,-7.5942206,-26.759533,0.8147561
3109,-7.218249,-22.988745,2.9539394
3110,1.4943178,-19.390837,4.8655057
3111,1.4943178,-19.390837,4.8655057
3112,1.4943178,-19.390837,4.8655057
3113,1.4943178,-19.390837,4.8655057
3114,6.7764735,-12.793526,-2.7759733
3115,6.7764735,-12.793526,-2.7759733
3116,6.7764735,-12.793526,-2.7759733
3117,6.7764735,-12.793526,-2.7759733
3118,0.27008986,-5.4610195,-4.896014
3119,0.27008986,-5.4610195,-4.896014
3120,-5.854938,10.437792,-6.8796644
3121,-5.854938,10.437792,-6.8796644
3122,-5.854938,10.437792,-6.8796644
3123,-5.854938,10.437792,-6.8796644
3124,-4.5448675,13.559229,-18.413967
3125,-4.5448675,13.559229,-18.413967
3126,-4.3148575,13.1351,-14.95245
3127,0.14566308,0.08943175,0.0529412
3128,0.14566308,0.08943175,0.0529412
3129,0.14566308,0.08943175,0.0529412
3130,0.14566308,0.08943175,0.0529412
3131,-0.6664011,-4.3734818,8.837293
3132,-0.56111693,-5.925825,17.12573
3133,3.7220356,-9.423235,26.561527
3134,7.463812,-10.994721,19.17638
3135,8.002795,-14.547165,16.033407
3136,-7.548757,-17.517555,-11.617752
3137,-1.5358931,-16.971394,13.192229
3138,-0.5563313,-7.913962,-7.5311103
3139,-0.5563313,-7.913962,-7.5311103
3140,-0.5563313,-7.913962,-7.5311103
3141,-0.5563313,-7.913962,-7.5311103
3142,1.8822541,-6.0598235,-5.1092744
3143,-0.6903293,-6.795317,-5.6889358
3144,-4.662116,-10.757532,-3.5760734
3145,-5.8911295,-16.760527,0.24945176
3146,-3.2297122,-27.629026,-0.15792629
3147,-3.2297122,-27.629026,-0.15792629
3148,1.2379866,-29.669804,-8.668898
3149,1.2379866,-29.669804,-8.668898
3150,1.4703895,-29.0375,-9.351749
3151,0.102592275,-24.486053,4.975875
3152,-9.656834,-11.519347,8.899506
3153,-9.656834,-11.519347,8.899506
3154,-9.656834,-11.519347,8.899506
3155,-9.656834,-11.519347,8.899506
3156,-9.656834,-11.519347,8.899506
3157,-2.2905295,-6.2994046,7.0405817
3158,-2.2905295,-6.2994046,7.0405817
3159,6.759724,-1.2233306,7.498209
3160,6.759724,-1.2233306,7.498209
3161,11.763715,0.29282168,-0.36370903
3162,11.763715,0.29282168,-0.36370903
3163,11.763715,0.29282168,-0.36370903
3164,11.763715,0.29282168,-0.36370903
3165,11.078769,0.5084748,0.32841492
3166,10.1395855,0.30508488,3.138486
3167,4.939085,-1.2927225,10.959726
3168,0.6798607,-2.0018952,14.052449
3169,-7.1007013,-2.900101,6.1998034
3170,-7.591828,-4.301697,1.5813566
3171,-7.591828,-4.301697,1.5813566
3172,-6.6311097,-6.375975,2.4556344
3173,-2.2187448,-13.040285,-5.494818
3174,-0.4746762,-14.908781,-9.066704
3175,-0.939482,-22.181465,-0.8596215
3176,-9.302098,-27.34398,-0.9170493
3177,-9.302098,-27.34398,-0.9170493
3178,-9.302098,-27.34398,-0.9170493
3179,-9.302098,-27.34398,-0.9170493
3180,-9.544072,-24.232115,1.2077773
3181,-9.798011,-18.983757,6.9616184
3182,-9.798011,-18.983757,6.9616184
3183,-6.7821565,-17.965612,6.3939214
3184,-3.9625144,-17.915361,6.5497537
3185,5.0970116,-17.71646,6.113662
3186,7.969296,-17.78585,5.5794644
3187,9.7348995,-17.551056,1.6962122
3188,9.47139,-16.913965,0.7573284
3189,-0.71665037,-2.495415,-3.923631
3190,-0.71665037,-2.495415,-3.923631
3191,-0.71665037,-2.495415,-3.923631
3192,-0.71665037,-2.495415,-3.923631
3193,-5.433502,4.513761,-7.059126
3194,-6.604789,7.9298143,-6.16092
3195,-4.853841,12.227324,-16.063915
3196,-4.853841,12.227324,-16.063915
3197,-4.853841,12.227324,-16.063915
3198,2.225026,1.2104691,-1.7338991
3199,2.225026,1.2104691,-1.7338991
3200,2.225026,1.2104691,-1.7338991
3201,2.225026,1.2104691,-1.7338991
3202,1.8774685,-1.6570296,1.1644074
3203,1.082154,-5.1352963,12.5958185
3204,2.0428724,-7.7030945,23.699114
3205,9.114262,-10.398011,11.3213415
3206,9.114262,-10.398011,11.3213415
3207,-4.4392843,-11.423335,-12.326925
3208,-12.528819,-25.379473,-31.440493
3209,-12.528819,-25.379473,-31.440493
3210,-12.528819,-25.379473,-31.440493
3211,-9.239884,-24.186651,-20.239391
3212,-9.239884,-24.186651,-20.239391
3213,2.7831519,-13.064214,0.7286145
3214,2.7831519,-13.064214,0.7286145
3215,2.7831519,-13.064214,0.7286145
3216,2.7831519,-13.064214,0.7286145
3217,-0.9107681,-25.245476,-5.6123657
3218,-0.9107681,-25.245476,-5.6123657
3219,-0.9107681,-25.245476,-5.6123657
3220,-4.8825545,-22.770998,15.456139
3221,-4.8825545,-22.770998,15.456139
3222,-4.8825545,-22.770998,15.456139
3223,-4.8825545,-22.770998,15.456139
3224,-10.653146,-12.575779,9.198908
3225,-10.653146,-12.575779,9.198908
3226,-10.653146,-12.575779,9.198908
3227,-10.653146,-12.575779,9.198908
3228,-1.8667008,-8.673384,6.7651076
3229,-1.8667008,-8.673384,6.7651076
3230,7.9860454,-1.8774685,7.0935225
3231,7.9860454,-1.8774685,7.0935225
3232,8.783752,-1.4222339,7.119844
3233,11.3829565,-0.23389842,8.837293
3234,12.341282,-1.2711871,6.561718
3235,12.221342,-0.39451665,2.2471595
3236,11.933904,-0.044865426,1.4904294
3237,10.355239,1.2415758,3.653541
3238,9.579067,0.97567344,5.3757753
3239,3.5736806,-0.6628119,10.964512
3240,1.0893325,-1.1682956,11.364711
3241,-5.979664,-2.8402805,5.948258
3242,-7.860123,-3.391228,5.1816573
3243,-9.922736,-5.52084,5.8357954
3244,-7.0025954,-11.672488,-0.96520483
3245,-1.483251,-16.636099,-9.541081
3246,-1.4042878,-20.90011,-2.5028925
3247,-1.8041883,-32.106297,1.5885352
3248,-2.2067807,-38.39912,-4.1557345
3249,-4.9567323,-35.95575,0.40528435
3250,-6.140282,-34.276585,0.99690974
3251,-10.887941,-26.931818,1.6627127
3252,-11.144273,-18.792032,4.6354957
3253,-11.144273,-18.792032,4.6354957
3254,-10.955239,-18.367905,5.1720862
3255,-5.4933224,-16.6696,4.434499
3256,-0.51565325,-15.902998,3.979264
3257,9.754043,-16.046867,-1.4898312
3258,9.754043,-16.046867,-1.4898312
3259,9.754043,-16.046867,-1.4898312
3260,8.446066,-15.407086,-2.2202404
3261,4.014259,-9.923933,-3.4947174
3262,4.014259,-9.923933,-3.4947174
3263,-1.6031911,-1.0677971,-5.0829535
3264,-5.919843,9.256933,-5.9644094
3265,-5.919843,9.256933,-5.9644094
3266,-6.343672,11.863316,-5.185845
3267,-0.9514461,11.740982,-8.585149
3268,-0.9514461,11.740982,-8.585149
3269,-0.9514461,11.740982,-8.585149
3270,-0.9514461,11.740982,-8.585149
3271,1.2547364,4.374977,-2.9772696
3272,0.5312066,-1.5538392,0.22313072
3273,0.5312066,-1.5538392,0.22313072
3274,2.6679974,-7.803892,26.901907
3275,2.6679974,-7.803892,26.901907
3276,5.480461,-9.015857,20.687746
3277,10.757832,-12.518052,11.652149
3278,4.1222353,-14.079967,4.8415775
3279,-9.58475,-12.700205,-14.480465
3280,-3.6918263,-10.41506,30.52135
3281,-12.2533455,-25.681568,-35.263924
3282,-10.756336,-25.305296,-28.822447
3283,-4.362714,-15.536597,-11.356635
3284,-3.8165522,-13.754244,-9.035598
3285,2.033301,-7.6193457,-1.7605193
3286,1.2403795,-8.43141,-1.4201403
3287,-1.1670992,-13.885849,0.9586246
3288,-0.95383894,-16.08276,1.5263218
3289,-1.3827524,-19.517956,-1.777269
3290,-2.8510482,-27.329624,-6.213562
3291,-0.9634102,-28.87449,-13.119846
3292,-0.33110684,-28.838598,-14.763118
3293,-11.367104,-23.302803,26.631218
3294,-11.367104,-23.302803,26.631218
3295,-11.367104,-23.302803,26.631218
3296,-11.367104,-23.302803,26.631218
3297,-12.287145,-11.593525,10.729716
3298,-12.287145,-11.593525,10.729716
3299,-12.287145,-11.593525,10.729716
3300,4.2921257,-5.2956157,6.6000032
3301,4.2921257,-5.2956157,6.6000032
3302,4.2921257,-5.2956157,6.6000032
3303,9.823434,-2.5097718,6.681359
3304,12.204592,-0.7609176,8.3581295
3305,16.070795,-0.7609176,6.9879394
3306,16.854145,-0.91196454,5.330312
3307,15.349957,0.13489537,0.95383894
3308,-2.1637099,-2.2414765,14.739787
3309,-2.1637099,-2.2414765,14.739787
3310,-2.1637099,-2.2414765,14.739787
3311,-2.1637099,-2.2414765,14.739787
3312,-7.4623165,-3.1827533,14.296517
3313,-3.100201,-14.583057,-11.88844
3314,-3.100201,-14.583057,-11.88844
3315,-3.100201,-14.583057,-11.88844
3316,-3.100201,-14.583057,-11.88844
3317,-4.386642,-33.18905,1.9621146
3318,-4.386642,-33.18905,1.9621146
3319,-4.688437,-38.39194,-1.8346968
3320,-6.5832534,-27.617062,1.7659031
3321,-6.5832534,-27.617062,1.7659031
3322,-7.9390864,-25.549664,2.676073
3323,-9.862617,-21.824636,3.083451
3324,-11.817553,-20.064117,3.0520453
3325,-1.8547367,-16.700706,1.6842481
3326,-1.8547367,-16.700706,1.6842481
3327,-1.8547367,-16.700706,1.6842481
3328,2.1867409,-16.037296,2.2519453
3329,9.835399,-15.524633,1.7371893
3330,3.0442686,-6.364011,-1.9351953
3331,3.0442686,-6.364011,-1.9351953
3332,3.0442686,-6.364011,-1.9351953
3333,3.0442686,-6.364011,-1.9351953
3334,-4.0441694,3.2659037,-4.987241
3335,-4.0441694,3.2659037,-4.987241
3336,-4.0441694,3.2659037,-4.987241
3337,-5.0886364,10.152746,-4.6061835
3338,-5.6324053,12.584153,-6.278168
3339,-3.8763726,12.296716,-17.800507
3340,-1.3923237,11.336296,-12.448959
3341,0.9553344,9.700204,-7.5670023
3342,1.788934,7.0722866,-5.116453
3343,0.9242278,2.908775,-2.2561326
3344,0.06909275,1.3663018,-0.2416751
3345,-1.2269198,-3.8321054,17.794226
3346,-1.0713863,-4.7781677,23.885754
3347,-5.241777,-11.763715,-21.288645
3348,-5.241777,-11.763715,-21.288645
3349,-5.241777,-11.763715,-21.288645
3350,-5.241777,-11.763715,-21.288645
3351,-6.2288165,-11.686845,31.01487
3352,-10.93819,-30.48456,13.554144
3353,-5.555536,-29.315367,-29.382965
3354,-3.5291142,-22.2033,-16.356138
3355,-2.2546372,-12.592528,-7.873583
3356,1.6980067,-8.711669,-2.6946175
3357,1.6980067,-8.711669,-2.6946175
3358,1.6980067,-8.711669,-2.6946175
3359,-5.4000025,-27.715168,-5.662615
3360,-5.4000025,-27.715168,-5.662615
3361,-5.4000025,-27.715168,-5.662615
3362,-5.4000025,-27.715168,-5.662615
3363,-1.5717853,-23.396122,1.7177476
3364,-1.5717853,-23.396122,1.7177476
3365,-1.5717853,-23.396122,1.7177476
3366,-1.5717853,-23.396122,1.7177476
3367,-7.917551,-20.869003,20.045872
3368,-9.441181,-18.710676,17.51606
3369,-12.404392,-12.762419,8.703294
3370,3.9305103,-5.1329036,7.021439
3371,3.9305103,-5.1329036,7.021439
3372,3.9305103,-5.1329036,7.021439
3373,3.9305103,-5.1329036,7.021439
3374,6.706783,-3.5949168,7.534101
3375,12.662219,-1.4294125,9.764511
3376,14.128122,-1.3815559,10.394422
3377,9.708579,-1.0534402,-1.4679967
3378,9.708579,-1.0534402,-1.4679967
3379,9.708579,-1.0534402,-1.4679967
3380,9.708579,-1.0534402,-1.4679967
3381,6.728617,1.1602199,0.017048862
3382,3.7555351,1.0402796,4.2068815
3383,-9.50818,-6.404988,-4.004987
3384,-9.50818,-6.404988,-4.004987
3385,-9.50818,-6.404988,-4.004987
3386,-9.50818,-6.404988,-4.004987
3387,-3.5697923,-12.168401,-8.73141
3388,-4.604688,-37.69234,-0.16510476
3389,-4.604688,-37.69234,-0.16510476
3390,-4.604688,-37.69234,-0.16510476
3391,-4.604688,-37.69234,-0.16510476
3392,-4.604688,-37.69234,-0.16510476
3393,-11.146666,-28.814669,0.6664011
3394,-12.191133,-20.61028,5.418846
3395,-12.191133,-20.61028,5.418846
3396,4.658826,-15.462121,0.57517475
3397,4.658826,-15.462121,0.57517475
3398,4.658826,-15.462121,0.57517475
3399,4.658826,-15.462121,0.57517475
3400,7.157232,-14.518452,-0.11455639
3401,7.157232,-14.518452,-0.11455639
3402,7.157232,-14.518452,-0.11455639
3403,7.157232,-14.518452,-0.11455639
3404,-4.310072,3.5796626,-6.4531436
3405,-4.310072,3.5796626,-6.4531436
3406,-4.310072,3.5796626,-6.4531436
3407,-4.310072,3.5796626,-6.4531436
3408,-5.011767,6.9762745,-6.3741803
3409,-6.604789,11.856137,-4.7141595
3410,-6.9281187,13.966607,-7.6390862
3411,-5.4789658,15.005989,-16.509579
3412,-3.802195,13.666905,-13.85534
3413,0.663111,9.120243,-7.5813594
3414,2.0261226,6.849455,-5.4613185
3415,2.4188447,-0.5886344,0.09840483
3416,2.4188447,-0.5886344,0.09840483
3417,0.40438703,-4.011866,6.413064
3418,0.09302098,-6.9559355,25.368706
3419,4.7976093,-10.86521,21.121445
3420,-7.3283186,-27.72713,-3.3607194
3421,-7.3283186,-27.72713,-3.3607194
3422,-7.3283186,-27.72713,-3.3607194
3423,-7.3283186,-27.72713,-3.3607194
3424,-10.061521,-26.831318,-13.610973
3425,-2.824727,-14.461023,-10.678868
3426,-2.9012976,-7.260123,-7.3106713
3427,-2.9012976,-7.260123,-7.3106713
3428,-2.9012976,-7.260123,-7.3106713
3429,-2.9012976,-7.260123,-7.3106713
3430,-4.671687,-9.38495,-4.2517467
3431,-7.4120674,-15.217753,3.100201
3432,-7.6085777,-18.626629,1.5861423
3433,-5.8887367,-27.707989,-0.7926225
3434,-2.417648,-31.49523,-3.6290147
3435,2.57707,-24.086153,5.7664037
3436,2.57707,-24.086153,5.7664037
3437,2.57707,-24.086153,5.7664037
3438,2.57707,-24.086153,5.7664037
3439,-3.246462,-19.402802,16.438093
3440,-6.7845497,-17.227724,16.639389
3441,-11.149058,-11.607882,8.969196
3442,-11.149058,-11.607882,8.969196
3443,-8.789435,-7.9833536,9.747462
3444,3.173481,-2.8235307,5.945865
3445,3.173481,-2.8235307,5.945865
3446,3.173481,-2.8235307,5.945865
3447,11.08834,-3.0439694,4.769793
3448,11.08834,-3.0439694,4.769793
3449,11.08834,-3.0439694,4.769793
3450,11.08834,-3.0439694,4.769793
3451,11.591431,-1.8053846,2.69043
3452,11.265409,-1.2664014,3.7181473
3453,9.96491,-0.9526425,4.889434
3454,7.7703924,-0.72502524,5.8764734
3455,-0.13220344,-1.5346966,10.073484
3456,-4.3579283,-12.930216,-11.704193
3457,-4.3579283,-12.930216,-11.704193
3458,-4.3579283,-12.930216,-11.704193
3459,-4.3579283,-12.930216,-11.704193
3460,-4.705187,-14.50888,-9.655936
3461,-5.61087,-26.996424,2.9371898
3462,-6.0490556,-33.98197,0.2542374
3463,-6.0490556,-33.98197,0.2542374
3464,-8.2145605,-28.151258,2.0964117
3465,-9.695119,-26.56063,2.5779674
3466,-9.884451,-24.165115,2.7957141
3467,-9.328419,-19.378872,1.9597218
3468,-9.328419,-19.378872,1.9597218
3469,-9.328419,-19.378872,1.9597218
3470,-9.328419,-19.378872,1.9597218
3471,9.670294,-15.148362,1.372882
3472,9.670294,-15.148362,1.372882
3473,9.670294,-15.148362,1.372882
3474,2.3494527,-6.740282,-2.3688943
3475,2.3494527,-6.740282,-2.3688943
3476,2.3494527,-6.740282,-2.3688943
3477,2.3494527,-6.740282,-2.3688943
3478,-2.3312075,6.257829,-5.6267223
3479,-2.3312075,6.257829,-5.6267223
3480,-2.3312075,6.257829,-5.6267223
3481,-3.4908292,11.360225,-9.529117
3482,-4.0034914,13.415659,-11.162817
3483,-4.0034914,13.415659,-11.162817
3484,-4.0034914,13.415659,-11.162817
3485,-2.1780667,11.999706,-4.5128636
3486,-0.9275179,9.240184,-2.0407786
3487,-0.7645068,2.2094727,-0.32542387
3488,-0.7645068,2.2094727,-0.32542387
3489,-1.2460624,-5.250152,17.636
3490,0.9816555,-7.4563346,21.974188
3491,-1.0304092,-13.6199465,30.202806
3492,-1.0304092,-13.6199465,30.202806
3493,-1.0304092,-13.6199465,30.202806
3494,-1.0304092,-13.6199465,30.202806
3495,-4.185346,-17.23251,-10.099207
3496,-4.185346,-17.23251,-10.099207
3497,-4.185346,-17.23251,-10.099207
3498,-4.185346,-17.23251,-10.099207
3499,1.1997014,-8.956036,-3.4492538
3500,0.53599226,-8.735598,-4.5822554
