,ax,ay,az
501,-8.669795,14.974882,-18.423538
502,-8.090134,15.406189,-21.20699
503,2.292025,5.6036916,-6.1992054
504,2.292025,5.6036916,-6.1992054
505,2.292025,5.6036916,-6.1992054
506,2.292025,5.6036916,-6.1992054
507,-1.8185452,-2.2007985,1.0208379
508,-1.8185452,-2.2007985,1.0208379
509,-3.3589249,-3.9134614,3.8521454
510,5.8157554,-15.433407,28.04448
511,5.8157554,-15.433407,28.04448
512,5.8157554,-15.433407,28.04448
513,2.996412,-16.264614,6.1639113
514,-7.1653075,-32.190044,-18.95295
515,-7.1653075,-32.190044,-18.95295
516,-7.1653075,-32.190044,-18.95295
517,-7.1653075,-32.190044,-18.95295
518,9.897612,-4.1291146,-20.081165
519,9.897612,-4.1291146,-20.081165
520,9.897612,-4.1291146,-20.081165
521,9.897612,-4.1291146,-20.081165
522,5.3967123,-32.50141,4.237988
523,5.3967123,-32.50141,4.237988
524,5.3967123,-32.50141,4.237988
525,5.3967123,-32.50141,4.237988
526,6.2063837,-36.427734,-0.7902297
527,-5.79751,-21.290438,14.601004
528,-5.79751,-21.290438,14.601004
529,-5.79751,-21.290438,14.601004
530,-5.79751,-21.290438,14.601004
531,-14.723337,-19.647167,23.682364
532,-15.061024,-18.763319,16.22274
533,-13.26192,-15.165112,9.776475
534,-13.26192,-15.165112,9.776475
535,10.060623,0.063110694,8.212168
536,10.060623,0.063110694,8.212168
537,10.060623,0.063110694,8.212168
538,10.060623,0.063110694,8.212168
539,12.726826,2.935096,10.358529
540,12.726826,2.935096,10.358529
541,12.789039,-0.116650105,4.0558343
542,12.789039,-0.116650105,4.0558343
543,12.789039,-0.116650105,4.0558343
544,12.789039,-0.116650105,4.0558343
545,8.414959,1.1793624,0.9299107
546,-8.89502,-5.736493,9.311669
547,-8.89502,-5.736493,9.311669
548,-8.89502,-5.736493,9.311669
549,-8.89502,-5.736493,9.311669
550,-10.507183,-7.3319077,6.06102
551,-7.785946,-14.949458,-3.6338003
552,-2.7672994,-19.400408,-8.597113
553,3.391527,-36.68167,-0.90508515
554,3.391527,-36.68167,-0.90508515
555,-2.8366911,-43.585266,-4.0959144
556,-11.271391,-45.255154,-2.6898317
557,-10.93819,-25.8036,6.7986073
558,-10.93819,-25.8036,6.7986073
559,-3.138486,-20.047367,4.9567323
560,-3.138486,-20.047367,4.9567323
561,-3.138486,-20.047367,4.9567323
562,-3.138486,-20.047367,4.9567323
563,19.213768,-14.504094,1.2364911
564,19.213768,-14.504094,1.2364911
565,19.213768,-14.504094,1.2364911
566,19.213768,-14.504094,1.2364911
567,12.987942,-11.792428,-2.8142586
568,0.45942193,-5.9114685,-5.6913285
569,0.45942193,-5.9114685,-5.6913285
570,-1.6654046,-3.92064,-6.5682983
571,-6.5569324,0.122931264,-7.2508507
572,-7.663613,2.3769703,-6.9275208
573,-5.2944193,13.4300165,-21.52314
574,-5.2944193,13.4300165,-21.52314
575,-5.2944193,13.4300165,-21.52314
576,-2.4966114,12.102897,-15.683158
577,-1.5574285,11.441581,-10.405787
578,1.3504493,-2.1361923,1.5741782
579,1.3504493,-2.1361923,1.5741782
580,1.3504493,-2.1361923,1.5741782
581,1.3504493,-2.1361923,1.5741782
582,-0.029312078,-5.1329036,7.376175
583,9.22463,-12.149258,35.808292
584,9.22463,-12.149258,35.808292
585,8.244769,-18.818354,19.875683
586,4.569992,-20.53341,11.664113
587,-7.488937,-22.358833,-10.209277
588,-7.488937,-22.358833,-10.209277
589,-7.488937,-22.358833,-10.209277
590,-3.696612,-6.5030937,-6.311967
591,-3.696612,-6.5030937,-6.311967
592,-1.0304092,-4.6298127,-12.516257
593,1.843969,-4.193721,-16.140486
594,-0.5395815,-6.68764,-13.095919
595,-2.1948166,-23.85375,-3.693621
596,-2.1948166,-23.85375,-3.693621
597,1.7099708,-33.287155,4.9567323
598,5.0970116,-34.96871,6.4537416
599,9.193523,-31.073793,-1.4584254
600,8.771789,-27.432516,-5.4852467
601,6.6589265,-21.64996,-5.866304
602,6.6589265,-21.64996,-5.866304
603,-8.130812,-22.61038,24.067907
604,-10.749158,-18.868603,13.273885
605,-7.3689966,-14.58545,10.535598
606,-7.3689966,-14.58545,10.535598
607,-5.486144,-12.978072,8.602496
608,9.770792,-0.14297116,11.426925
609,9.770792,-0.14297116,11.426925
610,9.770792,-0.14297116,11.426925
611,9.770792,-0.14297116,11.426925
612,13.390236,0.68105716,7.960622
613,13.390236,0.68105716,7.960622
614,5.604888,0.6786643,5.3709893
615,5.604888,0.6786643,5.3709893
616,5.604888,0.6786643,5.3709893
617,5.604888,0.6786643,5.3709893
618,-2.2378874,-2.0282164,8.628818
619,-2.2378874,-2.0282164,8.628818
620,-6.29103,-3.6906297,4.534997
621,-8.918947,-5.5423756,3.7301114
622,-9.345468,-7.082755,3.2222347
623,-3.99392,-16.470695,-3.5856447
624,-3.99392,-16.470695,-3.5856447
625,2.902793,-22.38037,-1.2263216
626,3.1710882,-32.30251,0.31166515
627,-6.969096,-40.207794,-2.9150562
628,-10.933405,-37.150963,0.13220344
629,-12.452249,-18.940388,0.58235323
630,-12.452249,-18.940388,0.58235323
631,-12.452249,-18.940388,0.58235323
632,-12.452249,-18.940388,0.58235323
633,-13.103994,-19.148863,1.7874385
634,13.797613,-13.900505,2.934797
635,13.797613,-13.900505,2.934797
636,13.797613,-13.900505,2.934797
637,13.797613,-13.900505,2.934797
638,13.797613,-13.900505,2.934797
639,13.52214,-10.824532,1.0686945
640,10.903793,-9.399306,0.25902304
641,3.4010983,-2.672783,-1.966302
642,3.4010983,-2.672783,-1.966302
643,2.1915264,1.7733806,-6.00748
644,-4.3172503,10.107283,-21.669401
645,-4.3172503,10.107283,-21.669401
646,-4.3172503,10.107283,-21.669401
647,-4.3172503,10.107283,-21.669401
648,-4.621438,10.1599245,-19.479969
649,-4.4081774,10.176675,-5.2698927
650,-3.8931224,8.47119,-2.4239295
651,-4.039384,2.067997,-0.9484551
652,2.23699,-8.496016,27.028727
653,2.23699,-8.496016,27.028727
654,2.23699,-8.496016,27.028727
655,2.23699,-8.496016,27.028727
656,10.053444,-15.644275,54.46932
657,10.053444,-15.644275,54.46932
658,-2.2905295,-27.365517,-31.002308
659,-2.2905295,-27.365517,-31.002308
660,1.6716857,-18.600307,-12.736696
661,-0.573081,-9.634102,-11.802299
662,-0.65922266,-3.4680972,-14.188242
663,1.2140584,1.6657037,-18.497715
664,-5.0548377,-34.180573,1.4063815
665,-5.0548377,-34.180573,1.4063815
666,-5.0548377,-34.180573,1.4063815
667,-5.0548377,-34.180573,1.4063815
668,5.971588,-36.307793,16.31606
669,5.971588,-36.307793,16.31606
670,7.006484,-26.522345,0.6879365
671,7.006484,-26.522345,0.6879365
672,0.69182485,-21.958933,0.6879365
673,0.69182485,-21.958933,0.6879365
674,-4.2092743,-23.216362,15.836897
675,-12.720544,-23.448765,23.104795
676,-13.166207,-21.412771,13.539787
677,-8.753544,-18.027824,11.204093
678,-4.065705,-15.230017,10.942976
679,-3.1265218,-12.877573,8.063513
680,3.7196429,-2.6512475,7.970193
681,3.7196429,-2.6512475,7.970193
682,12.403495,3.1172497,10.720144
683,12.403495,3.1172497,10.720144
684,12.403495,3.1172497,10.720144
685,14.291133,2.1589243,6.135197
686,9.29163,0.68345,2.2040887
687,9.29163,0.68345,2.2040887
688,9.29163,0.68345,2.2040887
689,8.434102,0.5709873,2.364707
690,1.8224336,-1.2879368,6.520741
691,-2.7888348,-3.2356944,7.6779695
692,-4.4656053,-3.9445682,6.317351
693,-7.218249,-9.782457,-0.90029955
694,-7.218249,-9.782457,-0.90029955
695,-7.218249,-9.782457,-0.90029955
696,-1.0040882,-15.974783,-6.369395
697,0.81864446,-25.389044,-0.34456646
698,-9.256635,-42.768414,-2.2728825
699,-9.256635,-42.768414,-2.2728825
700,-12.234203,-35.883965,2.0868404
701,-9.072387,-24.557838,3.3637104
702,-8.681759,-19.4363,-2.2875385
703,-8.681759,-19.4363,-2.2875385
704,-3.790231,-16.549658,2.8582265
705,-3.790231,-16.549658,2.8582265
706,7.19791,-14.683557,4.7602215
707,7.19791,-14.683557,4.7602215
708,10.290633,-10.695319,0.31166515
709,10.290633,-10.695319,0.31166515
710,10.290633,-10.695319,0.31166515
711,10.290633,-10.695319,0.31166515
712,-3.1890345,3.6921253,-5.281857
713,-3.1890345,3.6921253,-5.281857
714,-3.1890345,3.6921253,-5.281857
715,-3.1890345,3.6921253,-5.281857
716,-5.6060843,7.0411797,-7.0926256
717,-5.311169,9.798309,-14.502001
718,-2.5205395,7.0148587,-6.2877398
719,-2.5205395,7.0148587,-6.2877398
720,-2.5205395,7.0148587,-6.2877398
721,-2.5205395,7.0148587,-6.2877398
722,-1.8113668,-1.2065809,5.543572
723,-1.8113668,-1.2065809,5.543572
724,-1.8113668,-1.2065809,5.543572
725,7.873583,-11.900105,5.8597236
726,7.873583,-11.900105,5.8597236
727,7.873583,-11.900105,5.8597236
728,7.873583,-11.900105,5.8597236
729,-3.5793636,-10.551451,-15.199209
730,-10.473683,-30.800713,-22.555643
731,-10.473683,-30.800713,-22.555643
732,-10.473683,-30.800713,-22.555643
733,-10.473683,-30.800713,-22.555643
734,7.533503,-12.860824,-13.5583315
735,7.533503,-12.860824,-13.5583315
736,7.533503,-12.860824,-13.5583315
737,7.533503,-12.860824,-13.5583315
738,7.3992057,-14.326727,-9.301499
739,5.3270216,-23.132612,2.4101706
740,4.857729,-31.34448,-4.124628
741,4.857729,-31.34448,-4.124628
742,-2.1083758,-32.973396,-2.8528428
743,-2.1083758,-32.973396,-2.8528428
744,-2.1083758,-32.973396,-2.8528428
745,-11.312069,-14.290834,8.053942
746,-11.312069,-14.290834,8.053942
747,-11.312069,-14.290834,8.053942
748,-11.312069,-14.290834,8.053942
749,-8.025527,-12.345768,5.8094745
750,-1.468894,-8.206185,2.44367
751,7.4159555,0.1372882,8.957232
752,7.4159555,0.1372882,8.957232
753,12.012867,3.9675992,11.450852
754,10.496715,-0.27726832,6.997511
755,10.496715,-0.27726832,6.997511
756,10.496715,-0.27726832,6.997511
757,10.496715,-0.27726832,6.997511
758,7.732107,0.13010973,5.634499
759,1.8726828,0.39361933,7.9678
760,1.8726828,0.39361933,7.9678
761,-5.2274203,-4.0788655,2.3886352
762,-7.90798,-6.213263,1.4374882
763,-9.306884,-11.358729,0.35234314
764,1.9902302,-23.233112,-8.312068
765,1.9902302,-23.233112,-8.312068
766,-8.988339,-45.987957,-1.9375881
767,-8.988339,-45.987957,-1.9375881
768,-8.988339,-45.987957,-1.9375881
769,-13.956737,-31.193434,5.7687964
770,-13.089637,-25.326832,5.2055855
771,-10.99831,-19.462622,1.0543375
772,-15.492031,-20.47598,-0.9819546
773,-13.242778,-20.214865,-0.8069794
774,-9.062516,-19.031614,2.242374
775,3.269493,-15.639489,6.3508506
776,13.943875,-12.099009,-1.8729819
777,13.943875,-12.099009,-1.8729819
778,13.943875,-12.099009,-1.8729819
779,13.943875,-12.099009,-1.8729819
780,4.217948,-5.5040903,-0.22013968
781,4.217948,-5.5040903,-0.22013968
782,0.83090764,-0.23629123,-6.4531436
783,0.83090764,-0.23629123,-6.4531436
784,-0.96819586,0.24496523,-6.6592255
785,-0.96819586,0.24496523,-6.6592255
786,-3.4163525,7.172785,-6.4938216
787,-5.680262,12.371192,-22.721048
788,-6.1184473,12.974782,-25.712973
789,-3.952943,10.363614,-10.34836
790,-3.952943,10.363614,-10.34836
791,-1.4569299,5.3593245,-7.4066834
792,0.9912268,-0.39451665,1.006481
793,0.9912268,-0.39451665,1.006481
794,10.530214,-14.932709,11.872289
795,10.530214,-14.932709,11.872289
796,10.530214,-14.932709,11.872289
797,10.530214,-14.932709,11.872289
798,-11.254642,-28.733313,-25.221846
799,-11.254642,-28.733313,-25.221846
800,-11.254642,-28.733313,-25.221846
801,-11.254642,-28.733313,-25.221846
802,-3.4259238,-15.304194,-10.324431
803,-3.4259238,-15.304194,-10.324431
804,2.3494527,-8.239685,-13.189239
805,6.2638116,-5.317151,-14.037195
806,6.0696936,-9.025428,-9.814162
807,6.0696936,-9.025428,-9.814162
808,-0.10348958,-34.853855,8.276773
809,-0.10348958,-34.853855,8.276773
810,-0.10348958,-34.853855,8.276773
811,-0.10348958,-34.853855,8.276773
812,-12.91227,-21.302402,20.589642
813,-12.91227,-21.302402,20.589642
814,-12.91227,-21.302402,20.589642
815,-12.91227,-21.302402,20.589642
816,-10.440185,-17.49602,10.17159
817,-10.440185,-17.49602,10.17159
818,2.4430718,-6.3568325,5.81426
819,2.4430718,-6.3568325,5.81426
820,2.4430718,-6.3568325,5.81426
821,2.4430718,-6.3568325,5.81426
822,7.4901333,0.15882361,8.310273
823,7.4901333,0.15882361,8.310273
824,8.8701935,2.2286153,11.937194
825,11.174481,0.73848486,11.55853
826,12.096915,-0.4112664,9.819546
827,11.8740835,-1.5972091,6.020342
828,7.4159555,0.22582264,3.2461631
829,7.4159555,0.22582264,3.2461631
830,-3.246462,-3.7914274,3.598207
831,-3.246462,-3.7914274,3.598207
832,-3.246462,-3.7914274,3.598207
833,-3.246462,-3.7914274,3.598207
834,1.2212368,-17.881563,-6.541678
835,1.2212368,-17.881563,-6.541678
836,1.2212368,-17.881563,-6.541678
837,1.4847465,-19.165611,-5.906982
838,-1.7587247,-33.850067,-2.00698
839,-9.956236,-37.42883,-1.7605193
840,-11.886945,-19.75245,6.678966
841,-11.886945,-19.75245,6.678966
842,-11.886945,-19.75245,6.678966
843,-11.867802,-21.53002,0.93230355
844,-12.687045,-22.735106,-0.799801
845,5.1379886,-14.219049,1.8448663
846,5.1379886,-14.219049,1.8448663
847,5.1379886,-14.219049,1.8448663
848,17.932112,-14.8944235,2.8055844
849,17.932112,-14.8944235,2.8055844
850,17.932112,-14.8944235,2.8055844
851,17.932112,-14.8944235,2.8055844
852,17.932112,-14.8944235,2.8055844
853,6.9296145,-11.052149,-2.076671
854,-9.01466,4.7653065,-10.8682
855,-9.01466,4.7653065,-10.8682
856,-9.01466,4.7653065,-10.8682
857,-9.01466,4.7653065,-10.8682
858,-10.564611,5.9751773,-10.700404
859,-12.277274,12.452548,-21.417856
860,-9.829117,13.710276,-17.836699
861,-4.9160542,11.5157585,-10.992627
862,-3.5817564,10.593624,-10.391431
863,1.0055838,6.899704,-5.241179
864,-0.94426763,0.28803602,8.008478
865,-0.94426763,0.28803602,8.008478
866,-0.52283174,-0.47347978,12.016157
867,-0.72382885,-12.997214,18.438494
868,-0.72382885,-12.997214,18.438494
869,5.1619167,-15.8359995,-1.3100704
870,5.1619167,-15.8359995,-1.3100704
871,1.9615164,-19.488943,-16.732111
872,3.9640098,-6.795317,-7.8352976
873,3.9640098,-6.795317,-7.8352976
874,3.9640098,-6.795317,-7.8352976
875,3.9640098,-6.795317,-7.8352976
876,5.200202,-6.2419767,-7.885547
877,3.1375887,-10.903495,-3.3583267
878,1.0438689,-14.286049,0.625424
879,-3.3397822,-23.915964,3.6511483
880,5.5977097,-30.060432,-6.3215384
881,5.5977097,-30.060432,-6.3215384
882,6.105586,-27.501907,-5.8974104
883,3.1591241,-22.064219,-7.8257265
884,1.4703895,-20.37309,-5.7607207
885,-4.185346,-22.739891,1.7225332
886,-11.886945,-24.993929,19.274485
887,-11.886945,-24.993929,19.274485
888,-9.057731,-17.481663,10.964512
889,-7.117451,-15.426229,7.8693953
890,-2.5085754,-10.724033,9.546465
891,-2.5085754,-10.724033,9.546465
892,-1.3564314,-9.78485,8.863613
893,6.0625153,-3.0008986,7.426424
894,12.812967,2.2645075,7.852646
895,12.812967,2.2645075,7.852646
896,15.172589,-0.78753775,7.3399835
897,15.172589,-0.78753775,7.3399835
898,14.791831,-1.0316057,6.793822
899,10.582856,-0.9622138,1.6627127
900,-4.1590247,-2.8307092,8.463713
901,-4.1590247,-2.8307092,8.463713
902,-4.1590247,-2.8307092,8.463713
903,-4.1590247,-2.8307092,8.463713
904,-7.400103,-4.325625,6.1854467
905,-9.714262,-5.793921,6.949654
906,-8.257631,-9.662816,3.749254
907,-3.263212,-16.777275,-6.745367
908,0.5407779,-19.323837,-8.67129
909,4.0887356,-27.298517,-3.5976088
910,-10.991132,-25.401308,1.7826529
911,-10.991132,-25.401308,1.7826529
912,-10.991132,-25.401308,1.7826529
913,-10.991132,-25.401308,1.7826529
914,-9.73819,-22.140787,2.3575284
915,-5.787939,-16.980965,7.237092
916,-5.787939,-16.980965,7.237092
917,-5.787939,-16.980965,7.237092
918,7.114161,-14.228621,4.1757746
919,7.114161,-14.228621,4.1757746
920,11.016556,-10.424631,-1.0872388
921,11.016556,-10.424631,-1.0872388
922,11.016556,-10.424631,-1.0872388
923,11.016556,-10.424631,-1.0872388
924,2.1963122,-3.1974092,-4.1150565
925,2.1963122,-3.1974092,-4.1150565
926,0.04995017,-0.349053,-5.7248282
927,-3.5793636,3.1387851,-7.5047894
928,-6.966703,9.549157,-17.24956
929,-6.966703,9.549157,-17.24956
930,-6.0107703,11.111072,-10.240383
931,-6.0107703,11.111072,-10.240383
932,-6.0107703,11.111072,-10.240383
933,-2.4559333,0.41515473,-1.7581264
934,-2.4559333,0.41515473,-1.7581264
935,-2.4559333,0.41515473,-1.7581264
936,-2.4559333,0.41515473,-1.7581264
937,-0.3909274,-4.6226344,11.369496
938,0.45942193,-6.038288,22.118055
939,6.706783,-9.717851,30.705896
940,6.706783,-9.717851,30.705896
941,9.92154,-16.396519,34.814075
942,-5.2106705,-24.431019,-15.287744
943,-5.2106705,-24.431019,-15.287744
944,-5.2106705,-24.431019,-15.287744
945,1.1470593,-5.374878,-12.200106
946,1.1470593,-5.374878,-12.200106
947,1.1470593,-5.374878,-12.200106
948,-1.4497514,-12.812668,-7.1336026
949,-1.4497514,-12.812668,-7.1336026
950,-1.4497514,-12.812668,-7.1336026
951,-0.4435695,-22.497917,1.875973
952,0.9553344,-24.742384,3.9170506
953,2.984448,-28.405197,1.3537394
954,2.984448,-28.405197,1.3537394
955,4.493422,-25.511377,-14.767903
956,-15.369997,-20.497517,21.478275
957,-15.369997,-20.497517,21.478275
958,-15.369997,-20.497517,21.478275
959,-15.369997,-20.497517,21.478275
960,-15.980765,-19.747665,18.697218
961,-14.986846,-15.313766,9.349955
962,-12.598511,-14.5615225,9.982258
963,-6.125626,-12.700205,7.0357957
964,1.0582259,-9.157332,-2.4837499
965,8.139485,-4.5170507,4.336094
966,8.85823,-3.5709887,4.8152566
967,14.015659,1.8810577,10.121341
968,15.476777,2.056033,11.7717905
969,17.158632,0.5132605,9.7812605
970,16.842182,-0.36340994,7.2825556
971,14.842081,-0.109471634,4.582854
972,-3.5243287,-1.82692,9.098409
973,-3.5243287,-1.82692,9.098409
974,-3.5243287,-1.82692,9.098409
975,-3.5243287,-1.82692,9.098409
976,-4.3579283,-2.1744776,10.475778
977,-11.280962,-10.098609,2.8486555
978,-10.519148,-11.806786,-0.6583253
979,0.2748755,-35.895927,-2.3832514
980,0.2748755,-35.895927,-2.3832514
981,0.2748755,-35.895927,-2.3832514
982,-3.2009985,-40.248474,-1.8418752
983,-7.0983086,-28.333115,4.147061
984,-8.468498,-23.724237,9.268599
985,-7.809874,-19.541883,2.4269204
986,-8.444571,-21.142084,0.5129613
987,-12.116955,-24.850061,0.47946185
988,-13.187743,-25.36033,0.9921241
989,-4.935197,-20.808884,4.115655
990,-0.37417763,-18.720247,4.44407
991,10.28824,-15.404693,3.8210387
992,12.7698965,-15.198611,3.9673
993,15.524633,-15.399907,0.6999006
994,15.004792,-15.464514,-1.1446666
995,10.970793,-15.110077,-2.4622145
996,5.8061843,-14.183157,-0.7495517
997,-2.1996021,-11.068898,-2.8022945
998,-7.400103,13.178471,-7.4162545
999,-7.400103,13.178471,-7.4162545
1000,-7.400103,13.178471,-7.4162545
1001,-7.400103,13.178471,-7.4162545
1002,-5.8624153,17.983856,-9.885947
1003,-0.59700924,19.171894,-18.81626
1004,2.5698915,16.21586,-16.222141
1005,3.2599218,13.250256,-12.966407
1006,3.8611186,11.78166,-12.420245
1007,-0.5587241,2.8513472,3.7253258
1008,-0.5587241,2.8513472,3.7253258
1009,-7.0145597,-14.52563,8.892327
1010,-7.0145597,-14.52563,8.892327
1011,-7.0145597,-14.52563,8.892327
1012,2.021337,-19.057936,-26.005196
1013,2.021337,-19.057936,-26.005196
1014,2.021337,-19.057936,-26.005196
1015,-13.736298,-30.83182,-0.83090764
1016,-13.736298,-30.83182,-0.83090764
1017,-1.2699906,-16.506588,-5.636294
1018,1.4751751,-13.727922,-7.5717883
1019,6.000302,-11.694023,-9.900304
1020,-1.0256236,-19.15604,-3.2934213
1021,-1.0256236,-19.15604,-3.2934213
1022,-1.0256236,-19.15604,-3.2934213
1023,-1.0256236,-19.15604,-3.2934213
1024,3.554538,-27.569204,-3.367898
1025,3.554538,-27.569204,-3.367898
1026,3.554538,-27.569204,-3.367898
1027,1.3025929,-22.828424,9.074481
1028,-0.096311115,-22.318155,11.644971
1029,-7.8050885,-19.95614,12.567104
1030,-7.2589264,-18.413368,11.633006
1031,-5.658726,-9.344272,4.0677986
1032,-5.658726,-9.344272,4.0677986
1033,-5.658726,-9.344272,4.0677986
1034,-5.658726,-9.344272,4.0677986
1035,8.367103,-2.5145576,11.565708
1036,8.367103,-2.5145576,11.565708
1037,8.367103,-2.5145576,11.565708
1038,10.199706,-1.977967,13.867903
1039,12.832109,-3.6523447,10.502099
1040,12.832109,-3.6523447,10.502099
1041,12.331411,-3.769892,7.251449
1042,6.960721,-0.21475583,0.58235323
1043,6.960721,-0.21475583,0.58235323
1044,0.20548365,0.91585284,6.949654
1045,0.20548365,0.91585284,6.949654
1046,0.20548365,0.91585284,6.949654
1047,-5.8911295,-6.2060847,4.319344
1048,-5.799903,-10.582558,-0.92662054
1049,-5.404788,-12.728919,-3.528217
1050,-13.106387,-38.478085,2.5034907
1051,-13.106387,-38.478085,2.5034907
1052,-13.106387,-38.478085,2.5034907
1053,-13.106387,-38.478085,2.5034907
1054,-14.347066,-24.778276,2.652145
1055,-14.347066,-24.778276,2.652145
1056,-10.126126,-18.06611,-1.8155541
1057,-11.426925,-18.190836,-1.1039885
1058,-2.8725836,-16.597815,6.7555366
1059,-2.8725836,-16.597815,6.7555366
1060,2.7927232,-17.318651,5.622535
1061,9.442677,-16.111473,4.017549
1062,17.448463,-15.744773,-0.31585258
1063,17.448463,-15.744773,-0.31585258
1064,16.2027,-14.207086,0.85064846
1065,10.73151,-9.756136,-0.60329044
1066,7.4422765,-6.864709,-0.7543373
1067,1.7793628,-4.1793637,-4.057629
1068,-6.578468,8.892925,-13.342678
1069,-6.578468,8.892925,-13.342678
1070,-6.578468,8.892925,-13.342678
1071,-6.578468,8.892925,-13.342678
1072,-6.317351,11.360225,-19.832014
1073,-5.5483575,12.536297,-20.200808
1074,-4.935197,12.059527,-13.361821
1075,-3.7591243,11.072786,-7.4210405
1076,-0.9179466,3.373581,-1.9543378
1077,-0.9179466,3.373581,-1.9543378
1078,-0.9179466,3.373581,-1.9543378
1079,-0.80787677,-3.700201,10.681859
1080,6.25424,-14.089538,37.609787
1081,6.25424,-14.089538,37.609787
1082,6.25424,-14.089538,37.609787
1083,-8.442178,-20.293827,-8.204391
1084,-3.3445678,-13.864313,-6.7405815
1085,-3.3445678,-13.864313,-6.7405815
1086,-3.3445678,-13.864313,-6.7405815
1087,-3.3445678,-13.864313,-6.7405815
1088,0.40438703,-8.295019,-5.997909
1089,5.5426745,-4.5269213,-10.477572
1090,5.7631135,-4.6202416,-10.690832
1091,4.1007,-12.649956,-10.877771
1092,1.544567,-30.062826,6.195018
1093,1.544567,-30.062826,6.195018
1094,0.9720842,-32.376984,6.518348
1095,3.187838,-30.25455,-4.6875396
1096,-12.330215,-22.377977,20.460129
1097,-12.330215,-22.377977,20.460129
1098,-12.330215,-22.377977,20.460129
1099,-12.330215,-22.377977,20.460129
1100,-14.225032,-17.12962,11.901301
1101,-14.225032,-17.12962,11.901301
1102,-10.655539,-15.608382,7.673184
1103,-10.655539,-15.608382,7.673184
1104,1.1255239,-8.539386,4.887041
1105,1.1255239,-8.539386,4.887041
1106,3.2886357,-6.594021,4.975875
1107,8.484351,-1.8388842,7.75454
1108,14.209478,0.91585284,9.314062
1109,14.209478,0.91585284,9.314062
1110,10.36481,-2.3300111,4.0941195
1111,10.36481,-2.3300111,4.0941195
1112,10.36481,-2.3300111,4.0941195
1113,10.36481,-2.3300111,4.0941195
1114,4.1557345,-1.8317057,3.5096726
1115,-1.9097716,-0.6867401,3.7157545
1116,-8.327322,-2.114358,7.8167534
1117,-8.327322,-2.114358,7.8167534
1118,-8.69133,-11.947962,-2.6659036
1119,-8.69133,-11.947962,-2.6659036
1120,-4.1781673,-15.510277,-10.944771
1121,-1.5960127,-17.970398,-8.266604
1122,-0.9729815,-28.376484,0.28055847
1123,-7.960622,-27.81118,2.9036903
1124,-7.960622,-27.81118,2.9036903
1125,-7.960622,-27.81118,2.9036903
1126,-8.039884,-21.381367,0.4316054
1127,-8.039884,-21.381367,0.4316054
1128,-8.039884,-21.381367,0.4316054
1129,-8.039884,-21.381367,0.4316054
1130,11.507383,-14.738891,4.132405
1131,11.507383,-14.738891,4.132405
1132,11.507383,-14.738891,4.132405
1133,11.507383,-14.738891,4.132405
1134,6.5129642,-8.412267,-1.6046867
1135,6.5129642,-8.412267,-1.6046867
1136,6.5129642,-8.412267,-1.6046867
1137,6.5129642,-8.412267,-1.6046867
1138,-1.3516457,-1.6713866,-8.211569
1139,-1.3516457,-1.6713866,-8.211569
1140,-4.467998,0.8392825,-9.605687
1141,-8.456534,9.166006,-11.124532
1142,-8.456534,9.166006,-11.124532
1143,-7.3785677,12.922139,-21.564117
1144,-7.3785677,12.922139,-21.564117
1145,-0.56829536,7.299904,-4.601398
1146,-0.56829536,7.299904,-4.601398
1147,-0.56829536,7.299904,-4.601398
1148,-0.56829536,7.299904,-4.601398
1149,0.020937199,2.908775,-1.5544374
1150,-0.41964126,0.14446667,1.4111671
1151,7.775178,-9.684352,37.25266
1152,7.775178,-9.684352,37.25266
1153,7.775178,-9.684352,37.25266
1154,1.9878374,-18.854246,11.467603
1155,-3.897908,-27.698418,-14.95245
1156,-3.897908,-27.698418,-14.95245
1157,-3.897908,-27.698418,-14.95245
1158,-0.23748764,-7.7368927,-9.282357
1159,-0.23748764,-7.7368927,-9.282357
1160,-0.23748764,-7.7368927,-9.282357
1161,4.8529434,-2.8713872,-13.85534
1162,4.927121,-4.8693943,-13.941482
1163,0.5168497,-14.027325,-3.2503505
1164,0.6583253,-30.827034,6.3532434
1165,0.6583253,-30.827034,6.3532434
1166,1.8774685,-34.556847,4.944768
1167,5.7320065,-33.42863,-6.565606
1168,6.0840507,-29.082964,-9.416355
1169,3.5234313,-20.796919,-9.795019
1170,-13.182958,-16.600206,5.3829536
1171,-13.182958,-16.600206,5.3829536
1172,-13.182958,-16.600206,5.3829536
1173,-13.182958,-16.600206,5.3829536
1174,-9.606286,-14.827425,9.774082
1175,-9.606286,-14.827425,9.774082
1176,-6.3341007,-12.923037,6.8081784
1177,-2.6668007,-10.678569,6.1208405
1178,-0.4316054,-8.991928,6.3341007
1179,8.992228,-1.4868401,7.934301
1180,8.992228,-1.4868401,7.934301
1181,13.476676,1.5290136,3.0448668
1182,13.476676,1.5290136,3.0448668
1183,13.476676,1.5290136,3.0448668
1184,13.476676,1.5290136,3.0448668
1185,11.7158575,1.172184,2.6736803
1186,7.2987075,0.6978069,5.35424
1187,2.181955,0.29790643,8.717651
1188,-1.5864414,-0.7827521,9.455238
1189,-4.1350965,-2.2965117,6.9951177
1190,-6.331708,-4.61067,4.101298
1191,-4.9160542,-13.936398,-1.9328024
1192,2.3518455,-32.300114,-2.0838494
1193,2.3518455,-32.300114,-2.0838494
1194,2.3518455,-32.300114,-2.0838494
1195,-5.517251,-41.508595,-4.019344
1196,-11.644971,-37.280476,0.6349953
1197,-12.057135,-26.793034,4.788935
1198,-11.489437,-22.215265,1.9262222
1199,-11.489437,-22.215265,1.9262222
1200,-12.782758,-23.089542,1.6411772
1201,5.2049875,-15.442978,2.295315
1202,5.2049875,-15.442978,2.295315
1203,5.2049875,-15.442978,2.295315
1204,5.2049875,-15.442978,2.295315
1205,11.23191,-13.787744,-1.0920244
1206,11.23191,-13.787744,-1.0920244
1207,11.23191,-13.787744,-1.0920244
1208,11.23191,-13.787744,-1.0920244
1209,1.9375881,-8.429017,-1.3507484
1210,1.9375881,-8.429017,-1.3507484
1211,0.17198412,-2.1337996,-6.072386
1212,-5.407181,14.641981,-22.57
1213,-5.407181,14.641981,-22.57
1214,-5.407181,14.641981,-22.57
1215,-5.407181,14.641981,-22.57
1216,-2.7481568,4.3151565,-4.8696933
1217,-2.7481568,4.3151565,-4.8696933
1218,-2.7481568,4.3151565,-4.8696933
1219,-2.7481568,4.3151565,-4.8696933
1220,-2.0054846,1.660918,-4.045665
1221,-1.2867404,-3.266801,-0.148355
1222,-1.2867404,-3.266801,-0.148355
1223,0.7325028,-6.905387,23.66053
1224,3.769892,-7.7847495,27.500711
1225,8.1012,-16.386948,33.714573
1226,-1.8667008,-20.27947,15.566209
1227,-7.0863442,-20.478374,-3.1139596
1228,-3.8141594,-14.132608,-12.55215
1229,-3.8141594,-14.132608,-12.55215
1230,-3.8141594,-14.132608,-12.55215
1231,-3.8141594,-14.132608,-12.55215
1232,-3.8141594,-14.132608,-12.55215
1233,5.9691954,-28.520054,-2.0407786
1234,5.9691954,-28.520054,-2.0407786
1235,5.9691954,-28.520054,-2.0407786
1236,5.9691954,-28.520054,-2.0407786
1237,5.5163536,-31.109686,2.7454648
1238,5.5163536,-31.109686,2.7454648
1239,5.5163536,-31.109686,2.7454648
1240,-15.69572,-21.565912,22.230518
1241,-15.69572,-21.565912,22.230518
1242,-15.69572,-21.565912,22.230518
1243,-21.595823,-17.565413,16.131514
1244,-21.145674,-17.016857,13.029517
1245,-14.102698,-14.087145,9.045767
1246,-2.8965118,-11.107183,5.7397833
1247,-2.8965118,-11.107183,5.7397833
1248,6.1342998,-6.4911294,5.1792645
1249,11.744572,-2.5002005,5.6584272
1250,11.744572,-2.5002005,5.6584272
1251,17.493927,2.0751755,10.789536
1252,19.362421,1.6992031,10.475778
1253,18.428024,0.16121642,7.0262246
1254,10.103694,-0.008973085,1.5598212
1255,10.103694,-0.008973085,1.5598212
1256,-6.652645,-2.6679974,13.530215
1257,-6.652645,-2.6679974,13.530215
1258,-6.652645,-2.6679974,13.530215
1259,-6.652645,-2.6679974,13.530215
1260,1.7243278,-22.229622,-5.863911
1261,1.7243278,-22.229622,-5.863911
1262,1.7243278,-22.229622,-5.863911
1263,1.7243278,-22.229622,-5.863911
1264,-11.872588,-31.042686,4.456034
1265,-11.872588,-31.042686,4.456034
1266,-11.872588,-31.042686,4.456034
1267,-11.872588,-31.042686,4.456034
1268,-12.406785,-28.709385,5.41406
1269,-12.047563,-21.77678,5.9171515
1270,-13.611571,-21.067608,3.4929228
1271,-15.458531,-21.240189,3.641577
1272,1.3842479,-16.238293,3.4761732
1273,1.3842479,-16.238293,3.4761732
1274,8.498708,-15.081363,4.7913284
1275,15.697216,-14.614164,3.083451
1276,15.697216,-14.614164,3.083451
1277,15.5799675,-14.470595,-0.718445
1278,13.488641,-12.223435,-0.5937191
1279,4.232305,-7.5212398,-0.95802635
1280,-7.455138,2.7269206,-7.5406814
1281,-7.455138,2.7269206,-7.5406814
1282,-7.455138,2.7269206,-7.5406814
1283,-7.455138,2.7269206,-7.5406814
1284,-7.867302,4.6576295,-8.925228
1285,-6.547361,13.238292,-14.820545
1286,-4.738686,13.939986,-24.97748
1287,-4.738686,13.939986,-24.97748
1288,-4.738686,13.939986,-24.97748
1289,0.689432,0.072681986,0.47706902
1290,0.689432,0.072681986,0.47706902
1291,0.689432,0.072681986,0.47706902
1292,0.689432,0.072681986,0.47706902
1293,0.3278167,-0.7728817,1.3633107
1294,5.851648,-18.854246,36.033516
1295,5.851648,-18.854246,36.033516
1296,-7.0193453,-29.118856,-12.257533
1297,-7.0193453,-29.118856,-12.257533
1298,-4.7267222,-28.112974,-27.238997
1299,-4.7267222,-28.112974,-27.238997
1300,0.2318047,-21.850958,-10.329217
1301,1.5924234,-5.183153,-11.018949
1302,4.939085,-1.5753746,-14.173885
1303,3.6598222,-1.6857436,-15.302101
1304,-1.5358931,-6.3807607,-15.434005
1305,-5.5316076,-16.027426,-10.79851
1306,-4.935197,-27.715168,-2.7472596
1307,-4.935197,-27.715168,-2.7472596
1308,3.5569308,-35.87918,14.258232
1309,5.844469,-29.84478,5.4020963
1310,5.818148,-22.512274,-6.6329045
1311,3.949653,-20.334805,-5.3129635
1312,0.06909275,-21.024536,2.3455644
1313,-9.980165,-19.194326,12.545569
1314,-9.980165,-19.194326,12.545569
1315,-8.95484,-15.826428,9.067303
1316,-4.935197,-13.088441,9.3308115
1317,-4.935197,-13.088441,9.3308115
1318,-1.7922242,-11.797214,8.449356
1319,-1.7922242,-11.797214,8.449356
1320,7.356135,-0.29641092,11.398211
1321,7.356135,-0.29641092,11.398211
1322,7.356135,-0.29641092,11.398211
1323,7.356135,-0.29641092,11.398211
1324,13.764114,-0.32991043,3.557529
1325,13.764114,-0.32991043,3.557529
1326,12.928122,1.2535399,2.3288147
1327,9.02812,1.3157533,6.1734824
1328,7.7129645,1.0980065,7.620542
1329,-4.3890347,-11.047363,-2.9676983
1330,-4.3890347,-11.047363,-2.9676983
1331,-4.3890347,-11.047363,-2.9676983
1332,-4.3890347,-11.047363,-2.9676983
1333,-4.3890347,-11.047363,-2.9676983
1334,1.1087742,-30.537203,0.4004987
1335,1.1087742,-30.537203,0.4004987
1336,0.12412767,-35.01178,-2.0455642
1337,-0.7692925,-36.37988,-2.8022945
1338,-9.819546,-21.292831,0.21595225
1339,-9.819546,-21.292831,0.21595225
1340,-9.819546,-21.292831,0.21595225
1341,-9.819546,-21.292831,0.21595225
1342,-12.622438,-22.430618,2.0054846
1343,-12.488141,-21.434307,3.1839497
1344,7.8376904,-14.628521,3.4019957
1345,7.8376904,-14.628521,3.4019957
1346,13.433605,-14.504094,4.3504505
1347,13.433605,-14.504094,4.3504505
1348,11.840584,-13.291831,-0.2727818
1349,11.840584,-13.291831,-0.2727818
1350,7.4733834,-10.436595,-2.2010977
1351,-5.2274203,1.8906289,-8.707183
1352,-5.2274203,1.8906289,-8.707183
1353,-5.2274203,1.8906289,-8.707183
1354,-8.715259,5.7284174,-8.685647
1355,-9.664013,9.077172,-9.152845
1356,-6.096912,14.035998,-16.523935
1357,-6.096912,14.035998,-16.523935
1358,-6.096912,14.035998,-16.523935
1359,-4.90409,11.863316,-10.652547
1360,-3.112165,8.648559,-8.810373
1361,-1.1192428,3.289832,-5.0015974
1362,-1.0833504,2.5040889,-4.2445683
1363,-1.1886346,1.7757735,-3.3436706
1364,-1.6199409,-4.2610188,12.507284
1365,6.2398834,-9.772886,37.844284
1366,0.4761717,-18.825533,-12.341282
1367,0.4761717,-18.825533,-12.341282
1368,4.004688,-25.326832,17.777176
1369,4.004688,-25.326832,17.777176
1370,-6.8539414,-33.064323,-14.938092
1371,0.21744776,-5.0970116,-11.117353
1372,0.21744776,-5.0970116,-11.117353
1373,0.21744776,-5.0970116,-11.117353
1374,1.451247,-2.87378,-12.834802
1375,0.1911267,-2.7589245,-13.040883
1376,-3.751946,-7.502097,-8.817552
1377,-6.005985,-17.98954,-0.2416751
1378,8.149056,-28.956144,-9.873982
1379,8.149056,-28.956144,-9.873982
1380,8.149056,-28.956144,-9.873982
1381,8.149056,-28.956144,-9.873982
1382,6.0577297,-22.227228,-8.199605
1383,6.0577297,-22.227228,-8.199605
1384,-7.986943,-15.416657,9.872188
1385,-7.986943,-15.416657,9.872188
1386,-7.986943,-15.416657,9.872188
1387,-7.986943,-15.416657,9.872188
1388,-6.518647,-14.805889,10.118948
1389,-3.313461,-13.310973,9.577572
1390,1.5421742,-10.235299,9.163015
1391,14.006088,1.2607185,10.073484
1392,14.006088,1.2607185,10.073484
1393,14.006088,1.2607185,10.073484
1394,14.006088,1.2607185,10.073484
1395,12.686148,0.7791629,2.7215366
1396,12.686148,0.7791629,2.7215366
1397,12.686148,0.7791629,2.7215366
1398,-2.012663,-1.3719847,7.7234335
1399,-2.012663,-1.3719847,7.7234335
1400,-2.012663,-1.3719847,7.7234335
1401,-2.012663,-1.3719847,7.7234335
1402,-6.3771715,-7.600203,2.9946175
1403,-6.3771715,-7.600203,2.9946175
1404,2.167299,-21.709782,-1.1590235
1405,2.167299,-21.709782,-1.1590235
1406,2.167299,-21.709782,-1.1590235
1407,2.3805594,-35.170006,-2.5172493
1408,-10.44497,-20.73949,0.8961121
1409,-10.44497,-20.73949,0.8961121
1410,-10.44497,-20.73949,0.8961121
1411,-10.44497,-20.73949,0.8961121
1412,-2.5971098,-15.826428,8.193025
1413,-2.5971098,-15.826428,8.193025
1414,-2.5971098,-15.826428,8.193025
1415,-2.5971098,-15.826428,8.193025
1416,3.077768,-14.786747,8.413164
1417,8.5346,-13.723137,7.198807
1418,11.354242,-13.670495,4.944768
1419,12.772289,-12.743276,-1.8586249
1420,11.85494,-12.4630165,-2.0045872
1421,-0.8461619,0.180359,-7.4569325
1422,-0.8461619,0.180359,-7.4569325
1423,-0.8461619,0.180359,-7.4569325
1424,-0.8461619,0.180359,-7.4569325
1425,-5.5076795,4.278965,-7.1168528
1426,-6.4157557,5.828916,-7.435397
1427,-8.078169,9.966106,-12.944871
1428,-7.237391,11.367403,-14.34886
1429,-5.7616177,11.5519495,-10.980663
1430,-5.7616177,11.5519495,-10.980663
1431,0.14327025,5.009673,-4.4024944
1432,0.14327025,5.009673,-4.4024944
1433,1.1446666,1.7111673,-1.3986049
1434,7.097411,-6.323333,10.720144
1435,7.097411,-6.323333,10.720144
1436,7.097411,-6.323333,10.720144
1437,2.3709881,-12.285948,5.6967125
1438,-1.11685,-13.89572,5.1218367
1439,-9.089137,-22.962423,52.603214
1440,-11.43171,-32.439198,-27.248568
1441,-11.43171,-32.439198,-27.248568
1442,-11.43171,-32.439198,-27.248568
1443,-1.8714864,-10.299905,-6.0915284
1444,-1.8714864,-10.299905,-6.0915284
1445,7.408777,-2.0425732,-11.327922
1446,2.2824538,-28.258936,8.367701
1447,2.2824538,-28.258936,8.367701
1448,2.2824538,-28.258936,8.367701
1449,2.2824538,-28.258936,8.367701
1450,2.603391,-26.311478,-9.217452
1451,2.603391,-26.311478,-9.217452
1452,2.5004997,-23.57349,-11.557932
1453,-7.4769726,-20.365911,14.571991
1454,-7.4769726,-20.365911,14.571991
1455,-13.163815,-17.979969,9.057731
1456,-13.163815,-17.979969,9.057731
1457,-13.163815,-17.979969,9.057731
1458,-9.623335,-16.446768,9.450453
1459,-5.4023952,-14.29562,8.901898
1460,-5.4023952,-14.29562,8.901898
1461,1.1638091,-8.474481,5.4789658
1462,5.7056856,-4.7470613,7.510173
1463,5.7056856,-4.7470613,7.510173
1464,16.85893,1.1769696,4.156632
1465,16.85893,1.1769696,4.156632
1466,16.85893,1.1769696,4.156632
1467,16.85893,1.1769696,4.156632
1468,14.379667,1.4452649,2.556432
1469,8.807681,1.1482558,4.918148
1470,6.4938216,0.9086744,6.7890363
1471,0.86201435,-0.63170516,8.937791
1472,-0.328714,-1.2089736,8.9521475
1473,-8.758329,-5.2286167,4.9782677
1474,-8.758329,-5.2286167,4.9782677
1475,-6.101698,-11.018649,0.29970104
1476,-2.5229323,-15.285052,-5.195416
1477,0.5240282,-19.793428,-3.8563328
1478,0.5240282,-19.793428,-3.8563328
1479,-10.511969,-25.444378,1.5669997
1480,-10.511969,-25.444378,1.5669997
1481,-10.511969,-25.444378,1.5669997
1482,-10.511969,-25.444378,1.5669997
1483,-6.753443,-17.81935,2.8366911
1484,-7.376175,-17.534306,2.5106692
1485,-8.842377,-17.91297,2.4556344
1486,5.8707905,-15.261124,6.4848485
1487,5.8707905,-15.261124,6.4848485
1488,5.8707905,-15.261124,6.4848485
1489,13.1027975,-16.487446,5.186443
1490,13.026227,-16.609777,3.054438
1491,11.090733,-13.806886,-2.1556342
1492,7.6770725,-12.527623,-3.621537
1493,-0.8006983,-8.036295,-4.5391846
1494,-0.029312078,-5.6120663,-5.6530433
1495,-6.096912,-1.910968,-7.751549
1496,-7.7186475,0.6762715,-8.5014
1497,-8.629117,10.330114,-10.719546
1498,-2.635395,12.131611,-9.311071
1499,-2.635395,12.131611,-9.311071
1500,-2.635395,12.131611,-9.311071
1501,-2.635395,12.131611,-9.311071
1502,0.29162526,4.374977,-3.1953156
1503,0.29162526,4.374977,-3.1953156
1504,0.50009996,1.3444673,-1.302892
1505,0.19591236,-2.3491535,4.281059
1506,4.9031925,-10.927423,42.424744
1507,4.9031925,-10.927423,42.424744
1508,-9.927522,-29.133213,5.6991053
1509,-9.927522,-29.133213,5.6991053
1510,-9.927522,-29.133213,5.6991053
1511,-3.7615173,-14.376976,-6.951449
1512,-3.7615173,-14.376976,-6.951449
1513,-3.7615173,-14.376976,-6.951449
1514,-3.7615173,-14.376976,-6.951449
1515,4.7808595,-2.11705,-14.598013
1516,4.4982076,-3.649952,-15.970595
1517,3.4417763,-9.370592,-15.833905
1518,0.16002001,-27.645775,4.7578287
1519,0.16002001,-27.645775,4.7578287
1520,0.6750751,-31.686954,7.196414
1521,2.7305098,-32.218758,0.31166515
1522,5.10419,-26.565416,-8.915657
1523,2.926721,-22.90978,-9.950553
1524,-2.2594228,-22.054646,-0.64875406
1525,-15.48246,-19.795822,23.469103
1526,-18.170198,-18.046967,14.782858
1527,-15.487246,-15.790536,8.590532
1528,-15.487246,-15.790536,8.590532
1529,-6.3867426,-14.511273,8.386844
1530,3.7220356,-8.5271225,6.503991
1531,3.7220356,-8.5271225,6.503991
1532,7.7823567,-5.851349,7.1581287
1533,13.888541,-0.74177504,9.977472
1534,18.579071,0.68345,9.26142
1535,18.579071,0.68345,9.26142
1536,18.579071,0.68345,9.26142
1537,15.342779,0.5204389,-0.22971097
1538,7.42792,1.687239,3.653541
1539,7.42792,1.687239,3.653541
1540,7.42792,1.687239,3.653541
1541,-1.1814562,-1.6235301,12.773187
1542,-6.611967,-4.867001,8.813364
1543,-10.126126,-9.382557,1.2340983
1544,-8.772686,-12.386446,-0.15553348
1545,-3.1962128,-20.272293,-6.6735826
1546,-3.1962128,-20.272293,-6.6735826
1547,-6.0729837,-39.87968,-5.6554365
1548,-6.0729837,-39.87968,-5.6554365
1549,-11.462817,-34.118362,0.14656039
1550,-10.753943,-21.534805,1.4856437
1551,-10.753943,-21.534805,1.4856437
1552,-10.753943,-21.534805,1.4856437
1553,-10.753943,-21.534805,1.4856437
1554,-11.668899,-20.794525,1.6363916
1555,-5.510072,-18.827925,4.1757746
1556,17.405092,-15.105291,2.661716
1557,17.405092,-15.105291,2.661716
1558,17.405092,-15.105291,2.661716
1559,17.405092,-15.105291,2.661716
1560,7.073483,-10.482059,-2.292324
1561,7.073483,-10.482059,-2.292324
1562,4.706682,-8.462517,-3.1402807
1563,-0.8150552,-5.4107704,-4.3235316
1564,-6.7055864,9.779167,-15.254245
1565,-6.7055864,9.779167,-15.254245
1566,-6.7055864,9.779167,-15.254245
1567,-6.7055864,9.779167,-15.254245
1568,-2.4272194,14.6180525,-17.932411
1569,-2.4272194,14.6180525,-17.932411
1570,-3.0140593,13.978571,-12.80848
1571,-3.0140593,13.978571,-12.80848
1572,-1.6175481,9.556335,-6.925128
1573,-1.5646069,4.537689,-2.1197417
1574,-2.4224339,-0.14057833,4.130012
1575,-2.3575284,-4.2945185,18.999012
1576,-1.7587247,-5.6096735,23.296522
1577,-9.232706,-24.562624,0.47706902
1578,-9.232706,-24.562624,0.47706902
1579,-9.232706,-24.562624,0.47706902
1580,-3.845266,-13.945969,-7.7036924
1581,-3.845266,-13.945969,-7.7036924
1582,-3.845266,-13.945969,-7.7036924
1583,-3.845266,-13.945969,-7.7036924
1584,-2.5061827,-11.749357,-8.542078
1585,1.87029,-7.353443,-12.434602
1586,0.3804588,-20.277079,-2.376073
1587,0.3804588,-20.277079,-2.376073
1588,0.035593238,-22.732712,0.92482597
1589,-2.405684,-29.37758,4.281059
1590,-1.5119648,-32.503803,1.3489537
1591,2.8788648,-29.68446,-7.3779697
1592,-11.649756,-20.90011,20.007587
1593,-11.649756,-20.90011,20.007587
1594,-11.649756,-20.90011,20.007587
1595,-11.649756,-20.90011,20.007587
1596,-11.649756,-20.90011,20.007587
1597,-9.2997055,-16.180864,8.8085785
1598,-7.278069,-15.100506,11.59203
1599,-4.8681974,-13.124333,9.81476
1600,-1.6031911,-10.563415,8.300702
1601,6.445666,-5.779564,8.396415
1602,6.445666,-5.779564,8.396415
1603,15.15584,-0.79710907,11.045868
1604,13.121941,-0.6269195,4.4871407
1605,13.121941,-0.6269195,4.4871407
1606,13.121941,-0.6269195,4.4871407
1607,4.249055,0.64037913,7.943872
1608,4.249055,0.64037913,7.943872
1609,4.249055,0.64037913,7.943872
1610,4.249055,0.64037913,7.943872
1611,-1.3082758,-1.9013968,11.314163
1612,-9.400503,-5.892326,6.8659053
1613,-9.400503,-5.892326,6.8659053
1614,-9.357432,-8.350054,1.5478572
1615,-5.5483575,-12.513266,-5.423033
1616,-0.88683987,-16.353447,-9.938589
1617,4.9869413,-21.800709,-2.6395824
1618,5.590531,-26.929424,-0.58893347
1619,1.7721843,-41.05575,-4.7859445
1620,-7.603792,-43.491943,-4.4024944
1621,-13.573286,-30.654451,1.4207385
1622,-11.050952,-22.334906,4.0103707
1623,-9.426824,-19.357336,3.3804603
1624,-11.352747,-19.659132,2.5803602
1625,-9.690333,-19.568205,5.4667025
1626,8.410173,-16.137794,7.752147
1627,8.410173,-16.137794,7.752147
1628,10.61157,-15.934105,6.801
1629,6.2494545,-7.6887374,-2.6491537
1630,6.2494545,-7.6887374,-2.6491537
1631,6.2494545,-7.6887374,-2.6491537
1632,6.2494545,-7.6887374,-2.6491537
1633,3.4226336,-4.248756,-3.487539
1634,1.041476,-2.7086751,-3.9595232
1635,-3.6056845,1.4883357,-7.6316085
1636,-6.494719,3.452544,-7.7012997
1637,-9.201599,9.666704,-9.651151
1638,-10.672288,10.502697,-17.180168
1639,-5.028517,9.137292,-8.319246
1640,-5.028517,9.137292,-8.319246
1641,-5.028517,9.137292,-8.319246
1642,-3.3230324,2.9976087,-3.7271204
1643,-3.3230324,2.9976087,-3.7271204
1644,-1.6821543,-2.4978077,0.8985049
1645,-1.6821543,-2.4978077,0.8985049
1646,0.18155542,-4.0477586,7.493423
1647,-0.81984085,-22.674986,13.43181
1648,-0.81984085,-22.674986,13.43181
1649,-0.81984085,-22.674986,13.43181
1650,-0.81984085,-22.674986,13.43181
1651,-2.1661026,-20.250757,-10.302597
1652,-2.1661026,-20.250757,-10.302597
1653,-2.9207392,-9.358628,-10.108778
1654,-2.9207392,-9.358628,-10.108778
1655,-2.9207392,-9.358628,-10.108778
1656,-0.5563313,-6.9583282,-11.977274
1657,0.65353966,-8.326125,-11.35185
1658,0.65353966,-8.326125,-11.35185
1659,3.4752758,-20.727528,-3.159423
1660,2.9123642,-23.908785,5.4789658
1661,2.2968106,-27.710382,8.394022
1662,3.4274194,-24.588945,-13.824234
1663,3.4274194,-24.588945,-13.824234
1664,3.4274194,-24.588945,-13.824234
1665,-0.86530447,-22.25355,-0.39720857
1666,-10.317851,-22.74707,21.265314
1667,-16.85295,-21.688246,16.653746
1668,-16.550856,-21.029322,13.556537
1669,-10.765907,-17.12962,11.079367
1670,2.8094728,-8.462517,6.9352975
1671,2.8094728,-8.462517,6.9352975
1672,2.8094728,-8.462517,6.9352975
1673,8.1275215,-4.3447676,6.841977
1674,15.443277,2.1134605,10.221839
1675,15.443277,2.1134605,10.221839
1676,18.981365,2.2932215,2.556432
1677,18.981365,2.2932215,2.556432
1678,8.673683,1.1602199,-0.2440679
1679,8.673683,1.1602199,-0.2440679
1680,8.673683,1.1602199,-0.2440679
1681,-8.023134,-5.535197,10.95494
1682,-8.023134,-5.535197,10.95494
1683,-8.023134,-5.535197,10.95494
1684,-8.023134,-5.535197,10.95494
1685,-8.952447,-12.139687,-0.43579283
1686,-8.952447,-12.139687,-0.43579283
1687,-2.2761726,-19.002901,-6.450751
1688,-2.2761726,-19.002901,-6.450751
1689,0.5697909,-34.54249,-3.7654054
1690,-1.3971093,-39.910786,-5.6099725
1691,-7.620542,-35.63481,-2.0045872
1692,-7.1677003,-22.085752,2.4819553
1693,-7.1677003,-22.085752,2.4819553
1694,-7.1677003,-22.085752,2.4819553
1695,-10.028021,-21.81985,1.5957136
1696,-12.284752,-21.771994,6.952047
1697,-4.5448675,-18.22912,8.331808
1698,14.583357,-14.171193,-0.03798606
1699,14.583357,-14.171193,-0.03798606
1700,14.583357,-14.171193,-0.03798606
1701,14.583357,-14.171193,-0.03798606
1702,7.114161,-9.128618,-5.238786
1703,7.114161,-9.128618,-5.238786
1704,-1.2221341,-2.5049863,-7.20778
1705,-1.2221341,-2.5049863,-7.20778
1706,-1.2221341,-2.5049863,-7.20778
1707,-11.441281,10.766207,-10.125528
1708,-11.441281,10.766207,-10.125528
1709,-11.441281,10.766207,-10.125528
1710,-10.713265,12.124433,-14.34886
1711,-3.708576,11.417652,-13.117454
1712,-3.708576,11.417652,-13.117454
1713,0.018544376,7.6902328,-8.915657
1714,1.2044871,6.149853,-6.965806
1715,1.218844,2.1062822,-2.8313074
1716,0.59611195,0.45104706,-1.1446666
1717,0.22941187,-3.0176485,6.916155
1718,5.8061843,-11.294123,9.223135
1719,5.8061843,-11.294123,9.223135
1720,-12.12174,-36.334114,-34.93581
1721,-12.12174,-36.334114,-34.93581
1722,-12.12174,-36.334114,-34.93581
1723,-12.12174,-36.334114,-34.93581
1724,6.337989,-3.4342988,-11.052447
1725,6.337989,-3.4342988,-11.052447
1726,6.337989,-3.4342988,-11.052447
1727,6.337989,-3.4342988,-11.052447
1728,6.3236322,-2.7110682,-9.823733
1729,2.8046873,-9.58834,-8.67129
1730,-1.4186447,-28.01457,8.176275
1731,-1.4186447,-28.01457,8.176275
1732,3.2189445,-30.975388,-2.2609184
1733,3.2189445,-30.975388,-2.2609184
1734,-2.7601209,-21.757637,8.751151
1735,-2.7601209,-21.757637,8.751151
1736,-2.7601209,-21.757637,8.751151
1737,-11.333605,-18.540487,12.049657
1738,-11.333605,-18.540487,12.049657
1739,-8.497212,-15.898212,9.774082
1740,-2.4535406,-6.8024955,7.26102
1741,-2.4535406,-6.8024955,7.26102
1742,-2.4535406,-6.8024955,7.26102
1743,-2.4535406,-6.8024955,7.26102
1744,-1.6295122,-5.9880385,7.795218
1745,2.7305098,-3.1420753,9.079267
1746,13.53889,-0.25573292,8.260024
1747,13.53889,-0.25573292,8.260024
1748,13.53889,-0.25573292,8.260024
1749,17.103298,0.73369926,2.9156544
1750,16.32952,1.2224332,2.1442683
1751,12.863216,1.6680965,3.0161529
1752,8.501101,1.4213367,7.342376
1753,3.6885362,0.6786643,12.785151
1754,-1.7563318,-1.1754742,11.251949
1755,-5.3473606,-3.2500513,5.811867
1756,-8.492427,-5.7580285,-0.8668
1757,-7.7186475,-9.219545,-0.75194454
1758,-5.0069814,-11.986247,-1.9495523
1759,1.5637096,-18.808783,-6.5608206
1760,-12.826128,-30.022148,-0.55064833
1761,-12.826128,-30.022148,-0.55064833
1762,-12.826128,-30.022148,-0.55064833
1763,-12.826128,-30.022148,-0.55064833
1764,-12.090633,-24.275187,0.54646087
1765,-10.0112705,-19.58974,2.6736803
1766,-12.435499,-20.41616,2.9276185
1767,-6.2264237,-17.987146,9.977472
1768,-6.2264237,-17.987146,9.977472
1769,0.05712864,-16.784454,8.9521475
1770,14.830116,-15.744773,3.2006993
1771,14.830116,-15.744773,3.2006993
1772,17.012371,-16.530516,2.4221346
1773,15.3356,-16.116259,0.7046863
1774,15.3356,-16.116259,0.7046863
1775,4.814359,-9.008678,-2.8743782
1776,-3.124129,-3.7292142,-6.491429
1777,-3.124129,-3.7292142,-6.491429
1778,-8.332108,4.7988057,-8.800801
1779,-8.332108,4.7988057,-8.800801
1780,-5.5651073,13.547264,-17.563618
1781,-5.5651073,13.547264,-17.563618
1782,-5.5651073,13.547264,-17.563618
1783,-5.5651073,13.547264,-17.563618
1784,-3.1145577,12.023635,-10.448858
1785,2.4765713,3.2033913,-3.2503505
1786,2.4765713,3.2033913,-3.2503505
1787,2.4765713,3.2033913,-3.2503505
1788,2.874079,0.8030911,-1.5975082
1789,5.24088,-7.6480594,16.778473
1790,-0.695115,-16.825132,5.965008
1791,-0.695115,-16.825132,5.965008
1792,-0.695115,-16.825132,5.965008
1793,-7.646863,-10.053145,-8.690433
1794,-8.614759,-10.841281,-3.463611
1795,-17.803797,-38.48287,39.27938
1796,-5.811867,-11.995818,-10.094421
1797,-5.811867,-11.995818,-10.094421
1798,-5.811867,-11.995818,-10.094421
1799,1.2978072,-7.7847495,-18.01616
1800,6.678069,-10.050753,-14.590535
1801,3.6693935,-26.62763,2.676073
1802,3.6693935,-26.62763,2.676073
1803,3.6693935,-26.62763,2.676073
1804,2.1915264,-32.14458,-1.0274183
1805,-0.25692934,-21.4032,-3.204887
1806,-0.25692934,-21.4032,-3.204887
1807,-0.25692934,-21.4032,-3.204887
1808,-0.25692934,-21.4032,-3.204887
1809,-12.528819,-16.854145,18.85275
1810,-16.8024,-17.033607,14.174483
1811,-3.2679975,-10.340583,8.101798
1812,-3.2679975,-10.340583,8.101798
1813,-3.2679975,-10.340583,8.101798
1814,-3.2679975,-10.340583,8.101798
1815,5.0587263,-5.7460647,5.3350973
1816,7.4853473,-4.3495536,4.2332025
1817,12.987942,-0.701097,5.035695
1818,14.195121,0.89431745,7.785647
1819,18.744177,0.7049854,10.890334
1820,18.801903,0.29790643,10.59811
1821,15.165411,-0.111864455,5.1146584
1822,11.48824,0.6236294,1.1524432
1823,11.48824,0.6236294,1.1524432
1824,-9.352647,-3.6906297,13.269099
1825,-9.352647,-3.6906297,13.269099
1826,-9.352647,-3.6906297,13.269099
1827,-9.352647,-3.6906297,13.269099
1828,-10.847263,-13.459627,-2.0551355
1829,-10.847263,-13.459627,-2.0551355
1830,0.2533401,-38.078182,-5.94766
1831,0.2533401,-38.078182,-5.94766
1832,0.2533401,-38.078182,-5.94766
1833,0.2533401,-38.078182,-5.94766
1834,-10.765907,-29.983862,6.3939214
1835,-10.765907,-29.983862,6.3939214
1836,-10.140483,-25.863422,6.719644
1837,-9.057731,-20.181366,4.983053
1838,-9.87458,-21.07,6.9448686
1839,-9.87458,-21.07,6.9448686
1840,17.187346,-15.423836,2.117947
1841,17.187346,-15.423836,2.117947
1842,17.187346,-15.423836,2.117947
1843,17.187346,-15.423836,2.117947
1844,14.053945,-14.386547,-0.14596218
1845,14.053945,-14.386547,-0.14596218
1846,4.5006003,-9.387342,-2.8695927
1847,4.5006003,-9.387342,-2.8695927
1848,1.1135598,-6.649056,-5.3368917
1849,-3.600899,0.54436713,-9.423533
1850,-3.600899,0.54436713,-9.423533
1851,-12.210275,8.289037,-11.697015
1852,-9.450752,12.806985,-19.853548
1853,-9.450752,12.806985,-19.853548
1854,-6.4181485,12.244074,-13.514961
1855,-3.8668015,10.476376,-9.519546
1856,-0.7573284,3.562913,-3.2383864
1857,-0.7573284,3.562913,-3.2383864
1858,-0.8150552,2.0632114,-2.251347
1859,3.650251,-6.8024955,14.344672
1860,3.650251,-6.8024955,14.344672
1861,3.650251,-6.8024955,14.344672
1862,-1.8786649,-16.983358,11.903694
1863,-1.8786649,-16.983358,11.903694
1864,-1.8786649,-16.983358,11.903694
1865,-1.8786649,-16.983358,11.903694
1866,0.104985096,-20.377876,0.45553362
1867,-8.866305,-24.785456,-24.694826
1868,-2.9542387,-12.946965,-8.034201
1869,-2.9542387,-12.946965,-8.034201
1870,0.55034924,-8.409874,-8.982955
1871,3.312564,-6.510272,-9.337392
1872,4.6971107,-21.304796,4.2092743
1873,4.6971107,-21.304796,4.2092743
1874,4.6971107,-21.304796,4.2092743
1875,0.55752766,-27.169006,7.9151583
1876,3.5712879,-23.944677,-11.289637
1877,3.5712879,-23.944677,-11.289637
1878,0.32063824,-20.81367,-8.932407
1879,0.32063824,-20.81367,-8.932407
1880,-2.2522442,-20.715563,-0.40917268
1881,-12.950554,-22.79732,20.9369
1882,-5.3569317,-16.736597,12.622139
1883,-5.3569317,-16.736597,12.622139
1884,-5.3569317,-16.736597,12.622139
1885,-5.3569317,-16.736597,12.622139
1886,-0.721436,-13.720744,7.740183
1887,10.513465,0.26650062,8.2456665
1888,10.513465,0.26650062,8.2456665
1889,10.513465,0.26650062,8.2456665
1890,12.652648,2.2118654,10.751251
1891,16.47578,3.2273195,6.9209404
1892,13.071691,1.1099706,1.3058829
1893,13.071691,1.1099706,1.3058829
1894,-1.2891332,-1.9540387,10.475778
1895,-1.2891332,-1.9540387,10.475778
1896,-1.2891332,-1.9540387,10.475778
1897,-1.2891332,-1.9540387,10.475778
1898,-9.853045,-7.4419775,3.9649072
1899,-9.853045,-7.4419775,3.9649072
1900,-8.554939,-9.55484,1.7659031
1901,-3.6894333,-16.55923,-6.1848483
1902,-2.9374888,-18.725033,-5.298607
1903,-2.1230319,-29.62434,-3.1402807
1904,-7.6779695,-22.04986,0.9921241
1905,-7.6779695,-22.04986,0.9921241
1906,-7.6779695,-22.04986,0.9921241
1907,-7.6779695,-22.04986,0.9921241
1908,-9.522537,-21.527628,1.3298112
1909,-9.522537,-21.527628,1.3298112
1910,-0.9131609,-18.741783,6.645467
1911,-0.9131609,-18.741783,6.645467
1912,2.4646072,-17.467306,7.0286174
1913,9.82822,-15.7184515,6.734001
1914,12.374782,-14.338691,4.170989
1915,15.546168,-15.251553,0.13459627
1916,8.242376,-12.4223385,-2.5196424
1917,8.242376,-12.4223385,-2.5196424
1918,2.9748766,-9.569197,-4.206283
1919,-0.8030911,-6.8024955,-6.6017976
1920,-11.283355,10.706087,-9.373284
1921,-11.283355,10.706087,-9.373284
1922,-11.283355,10.706087,-9.373284
1923,-11.283355,10.706087,-9.373284
1924,-10.396814,13.743775,-15.009877
1925,-5.6060843,14.2851515,-18.006588
1926,-5.6060843,14.2851515,-18.006588
1927,-1.509572,10.754242,-8.829515
1928,0.41156548,3.9173498,-2.9318058
1929,0.41156548,3.9173498,-2.9318058
1930,0.20309082,-6.6107707,17.674286
1931,0.20309082,-6.6107707,17.674286
1932,0.20309082,-6.6107707,17.674286
1933,8.613862,-10.663913,31.649567
1934,0.60807604,-15.788143,3.6750765
1935,-4.5352964,-12.065509,-15.544075
1936,-5.637191,-9.447163,-0.5913263
1937,-5.637191,-9.447163,-0.5913263
1938,-9.256635,-35.9055,-14.676976
1939,-9.256635,-35.9055,-14.676976
1940,7.3992057,-6.349654,-15.225531
1941,7.3992057,-6.349654,-15.225531
1942,7.3992057,-6.349654,-15.225531
1943,7.3992057,-6.349654,-15.225531
1944,7.2098737,-8.7882395,-8.266604
1945,1.7243278,-31.952856,-2.9916265
1946,1.7243278,-31.952856,-2.9916265
1947,1.7243278,-31.952856,-2.9916265
1948,1.7243278,-31.952856,-2.9916265
1949,1.1039885,-27.825537,-6.8724856
1950,1.1039885,-27.825537,-6.8724856
1951,-13.197314,-16.020247,9.606286
1952,-13.197314,-16.020247,9.606286
1953,-13.197314,-16.020247,9.606286
1954,-12.04517,-14.609379,10.715359
1955,-5.9844494,-12.101401,8.142476
1956,-5.9844494,-12.101401,8.142476
1957,0.51445687,-9.672387,4.870291
1958,3.9017963,-7.2385874,5.3733826
1959,8.053044,-3.5877385,6.235696
1960,10.719247,-1.3624134,7.6130643
1961,12.9688,-1.0749756,5.2872405
1962,12.9688,-1.0749756,5.2872405
1963,12.9688,-1.0749756,5.2872405
1964,12.9688,-1.0749756,5.2872405
1965,7.1213393,0.7743772,-0.15553348
1966,-5.8286166,-2.2151556,8.497212
1967,-5.8286166,-2.2151556,8.497212
1968,-5.8286166,-2.2151556,8.497212
1969,-5.8286166,-2.2151556,8.497212
1970,-8.530712,-4.323232,4.927719
1971,-6.2431736,-11.854642,-0.91465646
1972,-3.7974095,-14.968901,-4.7428737
1973,1.4297116,-21.518055,-5.5980086
1974,1.4297116,-21.518055,-5.5980086
1975,-11.644971,-31.727633,2.1227329
1976,-11.644971,-31.727633,2.1227329
1977,-11.644971,-31.727633,2.1227329
1978,-11.644971,-31.727633,2.1227329
1979,-12.924233,-20.519053,0.91525465
1980,-9.872188,-20.808884,6.8778696
1981,-9.872188,-20.808884,6.8778696
1982,11.809477,-16.69592,5.366204
1983,11.809477,-16.69592,5.366204
1984,11.809477,-16.69592,5.366204
1985,11.809477,-16.69592,5.366204
1986,14.1472645,-16.727026,4.8846483
1987,15.543776,-16.837395,1.4446666
1988,12.741182,-14.468203,-2.376073
1989,6.5608206,-10.769497,-2.8576283
1990,2.2417758,-8.402696,-5.4373903
1991,-3.8811584,-4.5170507,-8.0677
1992,-5.577071,-3.1779675,-6.870093
1993,-10.18146,12.584153,-13.785649
1994,-10.18146,12.584153,-13.785649
1995,-10.18146,12.584153,-13.785649
1996,-10.18146,12.584153,-13.785649
1997,1.326521,7.3118677,-8.338388
1998,1.326521,7.3118677,-8.338388
1999,1.326521,7.3118677,-8.338388
2000,1.326521,7.3118677,-8.338388
2001,0.47856453,-1.9420747,1.2867404
2002,0.47856453,-1.9420747,1.2867404
2003,-0.03888337,-7.5260253,17.2696
2004,7.8927255,-14.951852,6.216553
2005,7.8927255,-14.951852,6.216553
2006,7.8927255,-14.951852,6.216553
2007,-11.604293,-30.594631,-26.659334
2008,-11.604293,-30.594631,-26.659334
2009,-11.604293,-30.594631,-26.659334
2010,-11.604293,-30.594631,-26.659334
2011,-3.4450665,-9.859028,-9.468997
2012,-3.4450665,-9.859028,-9.468997
2013,0.9553344,-4.1051865,-9.399606
2014,2.6153553,-2.9458637,-8.149056
2015,0.53359944,-16.72942,-3.1857443
2016,0.53359944,-16.72942,-3.1857443
2017,0.52163535,-23.39373,1.1524432
2018,1.4273187,-35.227432,-0.30867413
2019,1.4273187,-35.227432,-0.30867413
2020,7.083054,-24.366411,-11.411969
2021,7.083054,-24.366411,-11.411969
2022,3.2910285,-23.187649,-5.8208404
2023,-12.406785,-15.371194,10.552348
2024,-12.406785,-15.371194,10.552348
2025,-12.406785,-15.371194,10.552348
2026,-13.053446,-15.18904,9.347562
2027,-3.124129,-9.322437,5.3709893
2028,-3.124129,-9.322437,5.3709893
2029,-3.124129,-9.322437,5.3709893
2030,-3.124129,-9.322437,5.3709893
2031,13.172488,0.99720883,10.080663
2032,13.172488,0.99720883,10.080663
2033,13.172488,0.99720883,10.080663
2034,14.260027,0.9613165,9.920045
2035,16.99562,0.2545365,7.75454
2036,12.401102,1.4045869,1.5550356
2037,12.401102,1.4045869,1.5550356
2038,3.8850467,1.4380864,7.850253
2039,3.8850467,1.4380864,7.850253
2040,-7.1653075,-12.707384,-2.618047
2041,-7.1653075,-12.707384,-2.618047
2042,-7.1653075,-12.707384,-2.618047
2043,-7.1653075,-12.707384,-2.618047
2044,-6.5688963,-14.247764,-4.2684965
2045,-2.242673,-35.447872,-5.823233
2046,-2.242673,-35.447872,-5.823233
2047,-2.242673,-35.447872,-5.823233
2048,-10.636395,-23.158934,4.9229336
2049,-10.636395,-23.158934,4.9229336
2050,-10.636395,-23.158934,4.9229336
2051,-6.4420767,-20.667706,5.9147587
2052,-6.4420767,-20.667706,5.9147587
2053,-6.4420767,-20.667706,5.9147587
2054,-6.4420767,-20.667706,5.9147587
2055,0.74446696,-17.8026,7.318448
2056,4.610969,-16.463516,5.6799626
2057,12.607184,-14.669199,4.1590247
2058,7.9334035,-11.25823,-2.7017958
2059,7.9334035,-11.25823,-2.7017958
2060,7.9334035,-11.25823,-2.7017958
2061,7.9334035,-11.25823,-2.7017958
2062,1.8320048,-7.5236325,-6.6759753
2063,1.8320048,-7.5236325,-6.6759753
2064,-12.758829,11.396117,-12.600006
2065,-12.758829,11.396117,-12.600006
2066,-12.758829,11.396117,-12.600006
2067,-12.758829,11.396117,-12.600006
2068,1.5014962,5.8097734,-8.010273
2069,1.5014962,5.8097734,-8.010273
2070,1.5014962,5.8097734,-8.010273
2071,1.5014962,5.8097734,-8.010273
2072,1.6645073,5.244469,-7.1021967
2073,-0.5491528,1.9962122,-3.7821553
2074,-2.8701909,-0.5096712,-0.34217364
2075,3.5856447,-11.190932,36.169907
2076,3.5856447,-11.190932,36.169907
2077,3.5856447,-11.190932,36.169907
2078,-4.2427735,-16.19522,27.174988
2079,-4.7362933,-23.329123,9.793225
2080,-3.1217363,-17.71646,-9.926624
2081,-3.1217363,-17.71646,-9.926624
2082,-3.1217363,-17.71646,-9.926624
2083,-3.1217363,-17.71646,-9.926624
2084,5.171488,-5.6240306,-10.465608
2085,8.259127,-3.757928,-12.183057
2086,8.314161,-9.986146,-14.094922
2087,7.816155,-15.253945,-9.756435
2088,2.2441685,-26.596523,5.076373
2089,-0.8916255,-30.93471,8.669496
2090,-3.399603,-22.368404,-7.3226357
2091,-3.399603,-22.368404,-7.3226357
2092,-3.399603,-22.368404,-7.3226357
2093,-3.399603,-22.368404,-7.3226357
2094,-15.729219,-19.493729,12.986446
2095,-15.729219,-19.493729,12.986446
2096,-15.729219,-19.493729,12.986446
2097,-12.509677,-17.74278,11.767004
2098,-6.99781,-15.8025,11.467603
2099,7.5717883,-1.5299109,8.827721
2100,7.5717883,-1.5299109,8.827721
2101,7.5717883,-1.5299109,8.827721
2102,7.5717883,-1.5299109,8.827721
2103,10.333704,0.16600206,11.163415
2104,15.635002,0.063110694,12.246167
2105,15.635002,0.063110694,12.246167
2106,15.500705,-2.1577277,6.6000032
2107,14.329418,-2.1218355,4.7913284
2108,8.498708,-0.8641081,0.18005991
2109,2.1505494,1.6441683,4.7362933
2110,2.1505494,1.6441683,4.7362933
2111,-2.8151557,-2.6919255,12.847363
2112,-2.8151557,-2.6919255,12.847363
2113,-2.8151557,-2.6919255,12.847363
2114,-6.0346985,-5.2549376,10.054341
2115,-6.221638,-12.7241335,-3.9714873
2116,-2.4726832,-18.286549,-8.178069
2117,-1.753939,-21.688246,-4.093521
2118,-2.7003005,-34.513775,-3.693621
2119,-11.635399,-34.005898,2.335993
2120,-11.635399,-34.005898,2.335993
2121,-8.962018,-20.131117,4.2834516
2122,-8.962018,-20.131117,4.2834516
2123,-8.962018,-20.131117,4.2834516
2124,-8.962018,-20.131117,4.2834516
2125,-7.318747,-19.584953,4.618746
2126,12.003296,-15.090934,3.0810583
2127,12.003296,-15.090934,3.0810583
2128,12.003296,-15.090934,3.0810583
2129,2.6368906,-10.21137,-3.6290147
2130,2.6368906,-10.21137,-3.6290147
2131,2.6368906,-10.21137,-3.6290147
2132,2.6368906,-10.21137,-3.6290147
2133,2.6368906,-10.21137,-3.6290147
2134,-10.528719,7.2062845,-11.682657
2135,-10.528719,7.2062845,-11.682657
2136,-10.528719,7.2062845,-11.682657
2137,-3.5171502,14.627624,-10.714761
2138,-3.5171502,14.627624,-10.714761
2139,-3.5171502,14.627624,-10.714761
2140,-3.5171502,14.627624,-10.714761
2141,-1.7012969,12.639487,-9.064311
2142,0.45224348,7.144071,-4.4434714
2143,0.8739785,5.680561,-2.8432715
2144,0.73011,1.0163515,3.4307094
2145,1.1327025,-2.248655,15.024833
2146,3.202195,-10.41506,46.20959
2147,-1.4880366,-17.383558,37.648075
2148,-6.765407,-19.237396,-18.663118
2149,-3.1552358,-22.74707,-16.684256
2150,-3.1552358,-22.74707,-16.684256
2151,1.3384851,-7.806285,-15.477076
2152,1.3384851,-7.806285,-15.477076
2153,1.3384851,-7.806285,-15.477076
2154,1.3384851,-7.806285,-15.477076
2155,3.0610185,-13.344473,-13.287643
2156,3.0610185,-13.344473,-13.287643
2157,3.0610185,-13.344473,-13.287643
2158,-3.4884362,-26.438297,5.6057854
2159,-3.9146578,-28.091438,4.721936
2160,1.7099708,-30.331121,-7.6797643
2161,4.174877,-27.681667,-10.218848
2162,3.1567314,-24.509981,-2.728117
2163,-1.8233309,-22.768604,9.922438
2164,-9.608977,-15.730416,11.90848
2165,-9.608977,-15.730416,11.90848
2166,-9.608977,-15.730416,11.90848
2167,3.1423743,-6.888637,7.522137
2168,3.1423743,-6.888637,7.522137
2169,3.1423743,-6.888637,7.522137
2170,3.1423743,-6.888637,7.522137
2171,11.850155,0.92542416,10.054341
2172,11.850155,0.92542416,10.054341
2173,11.850155,0.92542416,10.054341
2174,13.713864,-0.24107689,8.650353
2175,12.290733,-1.6163517,4.1638107
2176,10.1348,-1.9492532,1.5885352
2177,9.155238,-1.3094722,2.0509481
2178,6.4289165,1.1745768,9.692428
2179,1.2427722,-0.58624154,15.202201
2180,-2.475076,-2.6270201,9.383454
2181,-5.756832,-4.2681975,2.7670002
2182,-6.456434,-7.576275,-0.61764735
2183,-1.576571,-36.243187,-1.7605193
2184,-1.576571,-36.243187,-1.7605193
2185,-1.576571,-36.243187,-1.7605193
2186,-1.576571,-36.243187,-1.7605193
2187,-12.754044,-36.16662,0.802792
2188,-12.754044,-36.16662,0.802792
2189,-13.249956,-29.89503,-0.92662054
2190,-9.7812605,-18.923637,6.786643
2191,-9.7812605,-18.923637,6.786643
2192,-9.7812605,-18.923637,6.786643
2193,-9.7812605,-18.923637,6.786643
2194,-2.5875385,-17.275581,9.64457
2195,-1.0280164,-17.203796,9.215657
2196,10.230812,-14.72214,3.682255
2197,12.041581,-14.635699,2.1155543
2198,13.162917,-14.628521,1.1620145
2199,5.6530433,-10.779068,-3.5497525
2200,5.6530433,-10.779068,-3.5497525
2201,2.548356,-8.199007,-4.3235316
2202,-2.5971098,-3.484847,-7.327421
2203,-4.08724,-1.7144574,-8.865408
2204,-6.2048883,5.081458,-9.049954
2205,-6.3388863,6.2147584,-9.061918
2206,-6.53779,12.804592,-22.610678
2207,-6.6095743,14.927026,-25.57419
2208,-7.301997,15.274284,-17.256739
2209,-0.70229346,5.6781683,-3.4301112
2210,-0.70229346,5.6781683,-3.4301112
2211,-0.70229346,5.6781683,-3.4301112
2212,-0.56111693,-6.2108703,16.194025
2213,-0.56111693,-6.2108703,16.194025
2214,0.8500503,-8.318947,30.1047
2215,7.6746798,-11.528918,40.00052
2216,10.218848,-17.277973,22.412672
2217,-1.1359925,-16.657635,-14.104493
2218,-3.2488549,-9.042177,-14.372788
2219,-10.64836,-29.25794,-9.047562
2220,-10.64836,-29.25794,-9.047562
2221,-9.27817,-28.472197,-17.508284
2222,2.2130618,-6.4002023,-15.093626
2223,2.2130618,-6.4002023,-15.093626
2224,2.2130618,-6.4002023,-15.093626
2225,2.2130618,-6.4002023,-15.093626
2226,3.0059834,-8.565707,-10.954342
2227,-0.92273223,-27.566813,3.083451
2228,-0.92273223,-27.566813,3.083451
2229,0.5096712,-34.7052,2.5731816
2230,4.6755753,-34.78207,-2.9222345
2231,-8.559725,-19.117756,18.17977
2232,-8.559725,-19.117756,18.17977
2233,-8.559725,-19.117756,18.17977
2234,-8.559725,-19.117756,18.17977
2235,-11.930016,-14.314762,7.778468
2236,-11.930016,-14.314762,7.778468
2237,-11.046166,-13.129119,9.606286
2238,-8.6961155,-12.781561,10.744073
2239,2.1649063,-5.875576,7.4623165
2240,2.1649063,-5.875576,7.4623165
2241,2.1649063,-5.875576,7.4623165
2242,6.8745794,-2.4738796,8.367701
2243,12.012867,-0.38733816,9.979865
2244,14.49243,0.54436713,9.661321
2245,8.414959,1.8786649,1.7443677
2246,8.414959,1.8786649,1.7443677
2247,8.414959,1.8786649,1.7443677
2248,8.414959,1.8786649,1.7443677
2249,5.9548383,2.8728826,4.3408794
2250,0.87637126,1.2607185,10.13809
2251,-1.6630118,-0.07597212,10.176375
2252,-8.454142,-4.718347,4.7171507
2253,-8.746365,-6.975078,2.5803602
2254,-3.5099716,-14.609379,-6.719046
2255,-3.5099716,-14.609379,-6.719046
2256,-1.3301103,-22.600807,-1.477568
2257,-6.818049,-40.14558,-2.8815567
2258,-6.818049,-40.14558,-2.8815567
2259,-11.347961,-37.84578,-0.059521463
2260,-8.928518,-23.638096,4.812864
2261,-7.6827555,-20.615065,5.174479
2262,-5.8863435,-19.920248,2.105983
2263,-7.8433733,-21.209084,2.21366
2264,-11.158629,-22.948067,2.3479571
2265,-6.925726,-20.37309,4.5206404
2266,0.9768698,-17.321045,5.069195
2267,8.009974,-17.45295,-0.035593238
2268,12.252448,-15.323338,5.1003013
2269,12.252448,-15.323338,5.1003013
2270,12.710075,-14.817853,-0.06909275
2271,10.8200445,-14.343476,-0.29910284
2272,4.4192443,-11.548061,-1.6740786
2273,-7.7644105,4.499404,-9.833304
2274,-7.7644105,4.499404,-9.833304
2275,-7.7644105,4.499404,-9.833304
2276,-7.7644105,4.499404,-9.833304
2277,-9.510572,8.423334,-10.326824
2278,-8.871091,13.140185,-20.790339
2279,-8.154739,14.929419,-19.055841
2280,-6.9595246,14.852848,-16.358532
2281,-1.2317054,1.8020946,-1.6381862
2282,-1.2317054,1.8020946,-1.6381862
2283,-1.2317054,1.8020946,-1.6381862
2284,-1.2317054,1.8020946,-1.6381862
2285,-1.9743778,-1.599602,4.879863
2286,-1.1670992,-7.667202,27.79054
2287,4.069593,-9.6580305,24.293133
2288,10.024731,-13.318151,18.936798
2289,5.4182477,-14.137394,9.1510515
2290,-5.732904,-7.940283,-16.957336
2291,-6.684051,-9.245867,-10.812866
2292,-11.347961,-34.501812,1.820938
2293,-8.808877,-31.995928,-25.61726
2294,7.0758758,-7.992925,-19.743479
2295,7.0758758,-7.992925,-19.743479
2296,7.0758758,-7.992925,-19.743479
2297,7.0758758,-7.992925,-19.743479
2298,0.29671,-26.285156,9.012267
2299,0.29671,-26.285156,9.012267
2300,0.29671,-26.285156,9.012267
2301,0.29671,-26.285156,9.012267
2302,2.6129622,-30.666414,-4.191926
2303,2.9482565,-30.340693,-6.721439
2304,-12.526426,-18.657736,22.118055
2305,-12.526426,-18.657736,22.118055
2306,-12.526426,-18.657736,22.118055
2307,-12.526426,-18.657736,22.118055
2308,-14.023735,-16.315163,7.500602
2309,-14.023735,-16.315163,7.500602
2310,-9.517751,-14.367405,8.966804
2311,9.310772,-0.23389842,8.703294
2312,9.310772,-0.23389842,8.703294
2313,9.310772,-0.23389842,8.703294
2314,9.310772,-0.23389842,8.703294
2315,14.846867,1.3420744,9.589536
2316,14.846867,1.3420744,9.589536
2317,10.714461,1.2678969,1.8783658
2318,10.714461,1.2678969,1.8783658
2319,10.714461,1.2678969,1.8783658
2320,10.714461,1.2678969,1.8783658
2321,-6.2718873,-5.238188,6.7818575
2322,-6.2718873,-5.238188,6.7818575
2323,-6.2718873,-5.238188,6.7818575
2324,-6.2718873,-5.238188,6.7818575
2325,-6.8874407,-10.862817,0.3044867
2326,-6.8874407,-10.862817,0.3044867
2327,-4.319643,-15.684953,-5.5501523
2328,-1.9911275,-29.935707,-4.6731825
2329,-1.9911275,-29.935707,-4.6731825
2330,-12.349358,-25.065714,1.6100706
2331,-12.349358,-25.065714,1.6100706
2332,-12.349358,-25.065714,1.6100706
2333,-12.349358,-25.065714,1.6100706
2334,-8.688937,-21.865314,1.8376877
2335,-9.807582,-21.012571,4.5206404
2336,-9.807582,-21.012571,4.5206404
2337,-8.216953,-20.080866,6.276374
2338,-0.31435707,-17.637495,6.1160545
2339,14.765511,-13.945969,0.52253264
2340,14.765511,-13.945969,0.52253264
2341,14.765511,-13.945969,0.52253264
2342,14.765511,-13.945969,0.52253264
2343,6.7764735,-9.238688,-2.7759733
2344,6.7764735,-9.238688,-2.7759733
2345,-7.759625,6.166603,-9.780663
2346,-7.759625,6.166603,-9.780663
2347,-7.759625,6.166603,-9.780663
2348,-7.759625,6.166603,-9.780663
2349,-7.6755767,15.166607,-19.7028
2350,-7.6755767,15.166607,-19.7028
2351,-0.16331014,9.850952,-12.094522
2352,-0.16331014,9.850952,-12.094522
2353,-0.16331014,9.850952,-12.094522
2354,2.5339992,4.60738,-6.474679
2355,-1.2675978,-2.7062824,3.4283166
2356,-1.2675978,-2.7062824,3.4283166
2357,-1.2675978,-2.7062824,3.4283166
2358,2.7879374,-14.235799,7.292127
2359,2.7879374,-14.235799,7.292127
2360,2.7879374,-14.235799,7.292127
2361,2.7879374,-14.235799,7.292127
2362,-12.461821,-29.456842,30.202806
2363,-12.461821,-29.456842,30.202806
2364,-12.461821,-29.456842,30.202806
2365,-7.333104,-28.10101,-17.03899
2366,-7.333104,-28.10101,-17.03899
2367,-0.8772686,-15.6873455,-12.734303
2368,3.14716,-6.2347984,-12.252748
2369,7.7775707,-9.437592,-17.019848
2370,7.1835527,-12.309876,-8.268997
2371,5.6120663,-20.641386,8.964411
2372,5.6120663,-20.641386,8.964411
2373,2.2322044,-25.650162,8.612068
2374,2.2824538,-28.996822,-3.5377884
2375,3.7674992,-28.189545,-7.4210405
2376,-8.133204,-20.578873,4.2834516
2377,-8.133204,-20.578873,4.2834516
2378,-8.133204,-20.578873,4.2834516
2379,-8.133204,-20.578873,4.2834516
2380,-18.117556,-19.381266,22.676182
2381,-18.064913,-19.297516,16.176977
2382,-12.924233,-17.11287,8.300702
2383,-9.148957,-15.953248,10.394422
2384,9.631709,-1.5275182,7.8239317
2385,9.631709,-1.5275182,7.8239317
2386,9.631709,-1.5275182,7.8239317
2387,9.631709,-1.5275182,7.8239317
2388,14.6383915,1.4500505,10.926227
2389,18.82583,0.99003035,8.039585
2390,18.82583,0.99003035,8.039585
2391,17.637495,0.5491528,6.9113693
2392,3.825226,1.9244276,10.796715
2393,3.825226,1.9244276,10.796715
2394,3.825226,1.9244276,10.796715
2395,3.825226,1.9244276,10.796715
2396,-10.325029,-12.419946,-0.21774685
2397,-10.325029,-12.419946,-0.21774685
2398,-10.325029,-12.419946,-0.21774685
2399,-10.325029,-12.419946,-0.21774685
2400,-3.545864,-19.378872,-8.062915
2401,-4.8251266,-41.086857,-5.8040905
2402,-4.8251266,-41.086857,-5.8040905
2403,-4.8251266,-41.086857,-5.8040905
2404,-8.586046,-33.569805,1.5837495
2405,-7.6253276,-21.132513,5.9099727
2406,-7.6253276,-21.132513,5.9099727
2407,-8.674581,-21.381367,4.2714877
2408,-12.991232,-22.991436,2.8869405
2409,-14.112269,-23.139791,4.2834516
2410,-6.4875402,-19.18954,7.402496
2411,-0.7070791,-17.014465,7.605886
2412,8.036295,-14.748462,5.7664037
2413,13.320844,-13.636995,2.5707889
2414,17.32613,-13.612768,-1.1422737
2415,9.631709,-11.866606,-1.8705891
2416,9.631709,-11.866606,-1.8705891
2417,6.230312,-9.566804,-2.7472596
2418,1.0917253,-7.0468626,-4.723731
2419,-2.9084759,-5.061119,-7.3178496
2420,-7.9151583,0.15403795,-6.565606
2421,-8.344071,1.1099706,-6.6855464
2422,-11.084452,9.860523,-9.066704
2423,-10.545468,12.514762,-10.621441
2424,2.6368906,10.037891,-13.117454
2425,2.6368906,10.037891,-13.117454
2426,2.6368906,10.037891,-13.117454
2427,3.6335013,8.267501,-9.862019
2428,2.0739791,3.821637,-2.7496524
2429,-0.5300102,0.08703893,1.8448663
2430,1.9806589,-8.055437,30.825539
2431,1.9806589,-8.055437,30.825539
2432,1.9806589,-8.055437,30.825539
2433,-4.3674994,-16.734205,-2.0862422
2434,-4.3674994,-16.734205,-2.0862422
2435,-4.2981076,-16.51616,-8.949157
2436,-4.2981076,-16.51616,-8.949157
2437,-4.2981076,-16.51616,-8.949157
2438,-4.2981076,-16.51616,-8.949157
2439,1.0534402,-8.8746805,-9.612865
2440,1.0534402,-8.8746805,-9.612865
2441,1.0534402,-8.8746805,-9.612865
2442,1.0534402,-8.8746805,-9.612865
2443,-0.9921241,-15.352051,-7.1838517
2444,-2.3985057,-24.31347,0.94666046
2445,-2.0629122,-29.725138,3.856931
2446,2.2130618,-32.103905,0.48424748
2447,3.5521452,-29.267511,-4.886443
2448,2.0955145,-21.736101,-3.379862
2449,2.0955145,-21.736101,-3.379862
2450,-7.850552,-21.942184,18.131912
2451,-14.677574,-19.75963,18.412172
2452,-14.677574,-19.75963,18.412172
2453,-14.179568,-15.32573,8.796615
2454,-7.1222367,-14.053645,9.000303
2455,-7.1222367,-14.053645,9.000303
2456,10.048658,-3.1277182,8.57139
2457,10.048658,-3.1277182,8.57139
2458,10.048658,-3.1277182,8.57139
2459,10.048658,-3.1277182,8.57139
2460,15.745072,0.14446667,11.867503
2461,14.401203,-0.45673,2.254338
2462,14.401203,-0.45673,2.254338
2463,14.401203,-0.45673,2.254338
2464,-2.0437696,-2.0928226,12.452249
2465,-2.0437696,-2.0928226,12.452249
2466,-2.0437696,-2.0928226,12.452249
2467,-2.0437696,-2.0928226,12.452249
2468,-7.4769726,-5.3700924,6.046663
2469,-3.572185,-16.554445,-5.9955163
2470,-3.572185,-16.554445,-5.9955163
2471,-3.572185,-16.554445,-5.9955163
2472,-6.1713886,-38.97639,-2.1460629
2473,-6.1713886,-38.97639,-2.1460629
2474,-6.1713886,-38.97639,-2.1460629
2475,-10.21496,-24.131617,0.6687939
2476,-10.21496,-24.131617,0.6687939
2477,-10.21496,-24.131617,0.6687939
2478,-10.21496,-24.131617,0.6687939
2479,-6.30778,-19.407587,8.612068
2480,-6.30778,-19.407587,8.612068
2481,-6.30778,-19.407587,8.612068
2482,14.973686,-15.323338,2.5226333
2483,14.973686,-15.323338,2.5226333
2484,14.973686,-15.323338,2.5226333
2485,3.255136,-8.740383,-4.1727834
2486,3.255136,-8.740383,-4.1727834
2487,3.255136,-8.740383,-4.1727834
2488,3.255136,-8.740383,-4.1727834
2489,1.0007981,-6.9149585,-5.0997033
2490,-7.876873,10.342078,-12.8467655
2491,-7.876873,10.342078,-12.8467655
2492,-7.876873,10.342078,-12.8467655
2493,-7.876873,10.342078,-12.8467655
2494,-5.093422,15.085251,-23.818157
2495,-5.0548377,15.113965,-22.91995
2496,-4.10399,13.712668,-14.590535
2497,-0.5946164,7.275975,-4.7691946
2498,-0.5946164,7.275975,-4.7691946
2499,-0.59940207,-0.11425728,0.7692925
2500,-0.59940207,-0.11425728,0.7692925
2501,-0.69272214,-7.6193457,25.711178
2502,-0.69272214,-7.6193457,25.711178
2503,-8.142776,-24.179472,8.944969
2504,-8.142776,-24.179472,8.944969
2505,-3.342175,-17.682959,-8.050951
2506,-3.342175,-17.682959,-8.050951
2507,-3.342175,-17.682959,-8.050951
2508,-3.342175,-17.682959,-8.050951
2509,-3.342175,-17.682959,-8.050951
2510,0.49292147,-11.387443,-10.563714
2511,0.49292147,-11.387443,-10.563714
2512,0.49292147,-11.387443,-10.563714
2513,0.49292147,-11.387443,-10.563714
2514,1.2236297,-28.115368,-1.5855441
2515,1.2236297,-28.115368,-1.5855441
2516,1.2236297,-28.115368,-1.5855441
2517,1.2236297,-28.115368,-1.5855441
2518,-7.7330046,-21.125334,15.04876
2519,-7.7330046,-21.125334,15.04876
2520,-7.7330046,-21.125334,15.04876
2521,-7.7330046,-21.125334,15.04876
2522,-13.484752,-16.899609,9.996614
2523,-13.484752,-16.899609,9.996614
2524,-9.956236,-14.774782,8.667103
2525,-6.314958,-13.837993,11.242378
2526,-3.4426737,-12.173186,8.087441
2527,15.618253,-0.55034924,11.9922285
2528,15.618253,-0.55034924,11.9922285
2529,15.618253,-0.55034924,11.9922285
2530,15.618253,-0.55034924,11.9922285
2531,19.007687,-0.14536397,10.653146
2532,20.186451,-0.8066803,4.666602
2533,5.6745787,2.9760733,7.1246295
2534,5.6745787,2.9760733,7.1246295
2535,5.6745787,2.9760733,7.1246295
2536,5.6745787,2.9760733,7.1246295
2537,-4.484748,-2.0282164,10.276875
2538,-4.484748,-2.0282164,10.276875
2539,-4.961518,-14.851353,-6.6089764
2540,-4.961518,-14.851353,-6.6089764
2541,-4.961518,-14.851353,-6.6089764
2542,-4.08724,-17.95604,-4.316353
2543,-9.944272,-32.947075,3.8907297
2544,-9.944272,-32.947075,3.8907297
2545,-9.944272,-32.947075,3.8907297
2546,-9.944272,-32.947075,3.8907297
2547,-7.7644105,-21.594625,2.6401806
2548,-7.7644105,-21.594625,2.6401806
2549,-7.7644105,-21.594625,2.6401806
2550,-7.7644105,-21.594625,2.6401806
2551,6.5081787,-17.25644,7.4120674
2552,6.5081787,-17.25644,7.4120674
2553,6.5081787,-17.25644,7.4120674
2554,9.979267,-16.626528,6.0801625
2555,5.209773,-11.943176,-4.5798626
2556,5.209773,-11.943176,-4.5798626
2557,5.209773,-11.943176,-4.5798626
2558,5.209773,-11.943176,-4.5798626
2559,2.7185457,-10.398011,-6.2877398
2560,-5.8357954,-3.990331,-10.010373
2561,-5.8357954,-3.990331,-10.010373
2562,-11.855838,3.99392,-9.744472
2563,-11.855838,3.99392,-9.744472
2564,-4.453641,15.159429,-18.770796
2565,-4.453641,15.159429,-18.770796
2566,-4.453641,15.159429,-18.770796
2567,1.5541383,8.694022,-7.670193
2568,1.5541383,8.694022,-7.670193
2569,-0.62093747,-4.39741,26.511278
2570,-0.62093747,-4.39741,26.511278
2571,-0.62093747,-4.39741,26.511278
2572,-0.62093747,-4.39741,26.511278
2573,1.3480564,-8.960822,45.248875
2574,-2.6306095,-18.78007,23.37309
2575,-0.22552353,-24.565016,-11.021341
2576,-0.22552353,-24.565016,-11.021341
2577,-0.22552353,-24.565016,-11.021341
2578,-3.6104703,-27.509085,-15.630217
2579,5.264808,-6.22762,-11.577074
2580,5.264808,-6.22762,-11.577074
2581,5.264808,-6.22762,-11.577074
2582,5.264808,-6.22762,-11.577074
2583,-3.1025937,-28.453054,4.721936
2584,-3.1025937,-28.453054,4.721936
2585,-3.1025937,-28.453054,4.721936
2586,-3.1025937,-28.453054,4.721936
2587,2.3422742,-27.008686,-12.207284
2588,2.3422742,-27.008686,-12.207284
2589,2.3422742,-27.008686,-12.207284
2590,-5.445466,-22.967209,15.6212435
2591,-9.994521,-22.79732,23.284557
2592,-13.326527,-21.4032,19.485353
2593,-2.6859434,-11.943176,8.125727
2594,-2.6859434,-11.943176,8.125727
2595,-2.6859434,-11.943176,8.125727
2596,-2.6859434,-11.943176,8.125727
2597,0.8380861,-9.327223,7.974979
2598,12.68854,0.20907287,10.705788
2599,12.68854,0.20907287,10.705788
2600,12.68854,0.20907287,10.705788
2601,12.68854,0.20907287,10.705788
2602,13.716258,-0.79710907,3.0592237
2603,13.716258,-0.79710907,3.0592237
2604,2.8334012,0.43908295,12.669996
2605,2.8334012,0.43908295,12.669996
2606,2.8334012,0.43908295,12.669996
2607,2.8334012,0.43908295,12.669996
2608,-2.7098715,-2.5384858,7.2993054
2609,-7.809874,-5.645566,4.3815575
2610,-7.809874,-5.645566,4.3815575
2611,-3.3373895,-16.671991,-5.6961145
2612,-3.3373895,-16.671991,-5.6961145
2613,-1.1335998,-25.805994,-1.9543378
2614,-2.1131616,-37.72853,-3.0323045
2615,-2.1131616,-37.72853,-3.0323045
2616,-11.10838,-39.12265,-1.8442681
2617,-8.379964,-21.458235,0.64217377
2618,-8.379964,-21.458235,0.64217377
2619,-8.152347,-19.42673,1.6746768
2620,-8.152347,-19.42673,1.6746768
2621,-10.0112705,-19.57299,3.3445678
2622,-4.8993044,-18.080467,7.06451
2623,2.021337,-15.98914,7.347162
2624,7.574181,-14.539987,7.0935225
2625,12.619148,-14.027325,3.9338005
2626,15.440885,-14.700605,0.12502499
2627,8.072486,-12.065509,-3.8754754
2628,8.072486,-12.065509,-3.8754754
2629,-8.277073,1.4931214,-9.500104
2630,-8.277073,1.4931214,-9.500104
2631,-8.277073,1.4931214,-9.500104
2632,-8.277073,1.4931214,-9.500104
2633,-9.089137,10.6510515,-12.911372
2634,-9.089137,10.6510515,-12.911372
2635,-8.157132,11.681162,-18.718155
2636,-7.4383883,12.792628,-20.382961
2637,-5.0069814,13.566407,-14.590535
2638,-2.5348964,10.325329,-8.307282
2639,-1.6366907,3.019144,-2.1604197
2640,-1.6366907,3.019144,-2.1604197
2641,-1.8017955,2.1541386,-1.5927225
2642,2.1795623,-14.348262,39.408592
2643,2.1795623,-14.348262,39.408592
2644,2.1795623,-14.348262,39.408592
2645,-8.586046,-18.269798,-7.614859
2646,-8.586046,-18.269798,-7.614859
2647,-0.56590253,-23.218754,16.277775
2648,-8.868698,-29.866316,-20.095522
2649,-8.868698,-29.866316,-20.095522
2650,-3.5099716,-14.939887,-9.706186
2651,0.6056832,-10.836495,-11.534003
2652,-0.084346995,-15.145969,-3.5186458
2653,-0.084346995,-15.145969,-3.5186458
2654,-0.084346995,-15.145969,-3.5186458
2655,-0.084346995,-15.145969,-3.5186458
2656,-0.084346995,-15.145969,-3.5186458
2657,-0.55393845,-31.514372,7.3953176
2658,-2.5301108,-20.35634,0.23030917
2659,-2.5301108,-20.35634,0.23030917
2660,-2.5301108,-20.35634,0.23030917
2661,-2.5301108,-20.35634,0.23030917
2662,-12.984054,-16.707884,10.736895
2663,-12.984054,-16.707884,10.736895
2664,-12.984054,-16.707884,10.736895
2665,-5.1556354,-12.546765,7.43121
2666,-5.1556354,-12.546765,7.43121
2667,-4.3316073,-12.403196,7.194021
2668,1.396212,-7.2003026,1.9046868
2669,8.68804,-1.8460627,8.592925
2670,8.68804,-1.8460627,8.592925
2671,16.116558,-2.1720848,12.157333
2672,16.116558,-2.1720848,12.157333
2673,17.491533,-2.4930222,10.959726
2674,15.699609,-2.2127628,6.094519
2675,15.699609,-2.2127628,6.094519
2676,8.771789,-0.035294134,1.6555341
2677,2.754438,1.1386845,6.786643
2678,2.754438,1.1386845,6.786643
2679,-1.34686,-1.1228321,11.333305
2680,-8.49482,-7.772785,4.0414777
2681,-8.49482,-7.772785,4.0414777
2682,-5.759225,-14.173586,-6.129813
2683,-5.486144,-15.320944,-6.951449
2684,-3.871587,-22.658236,-3.2407792
2685,-11.242677,-27.559633,0.9128618
2686,-11.242677,-27.559633,0.9128618
2687,-11.242677,-27.559633,0.9128618
2688,-11.242677,-27.559633,0.9128618
2689,-11.242677,-27.559633,0.9128618
2690,-8.729615,-21.693031,-0.38763726
2691,-8.161918,-20.744276,4.712365
2692,-8.161918,-20.744276,4.712365
2693,7.2963142,-16.214365,6.503991
2694,7.2963142,-16.214365,6.503991
2695,14.3365965,-16.487446,0.3379862
2696,14.3365965,-16.487446,0.3379862
2697,14.3365965,-16.487446,0.3379862
2698,14.3365965,-16.487446,0.3379862
2699,11.102697,-15.582061,-1.2598212
2700,2.4933212,-7.300801,-7.543074
2701,-7.0002027,0.61884373,-10.597512
2702,-7.0002027,0.61884373,-10.597512
2703,-8.183454,3.0933216,-10.63819
2704,-7.234998,16.01935,-24.457638
2705,-7.234998,16.01935,-24.457638
2706,-7.234998,16.01935,-24.457638
2707,-7.234998,16.01935,-24.457638
2708,-0.10109676,5.869594,-5.6745787
2709,-0.10109676,5.869594,-5.6745787
2710,-0.10109676,5.869594,-5.6745787
2711,-1.1862419,-2.7565317,4.3145585
2712,-1.1862419,-2.7565317,4.3145585
2713,-1.1862419,-2.7565317,4.3145585
2714,5.4278193,-11.353944,28.557142
2715,11.325529,-12.982858,31.35495
2716,6.146264,-24.533909,32.770603
2717,-7.201499,-35.567814,-6.2901325
2718,-7.201499,-35.567814,-6.2901325
2719,-0.80787677,-29.54777,-19.36003
2720,-3.164807,-12.800704,-14.094922
2721,-3.164807,-12.800704,-14.094922
2722,-0.11784652,-2.478665,-16.41596
2723,0.5407779,-2.385345,-13.771293
2724,0.5407779,-2.385345,-13.771293
2725,-3.5985062,-6.902994,-11.006984
2726,-8.540583,-18.030218,-5.5429735
2727,-7.8744802,-22.701307,-2.4526432
2728,-2.5588248,-33.826138,11.88186
2729,3.3269207,-32.16851,4.6522455
2730,4.3929234,-27.820751,-4.929514
2731,-9.101101,-18.971495,19.523638
2732,-9.101101,-18.971495,19.523638
2733,-9.101101,-18.971495,19.523638
2734,-9.101101,-18.971495,19.523638
2735,-10.346565,-17.915361,16.495821
2736,-12.699009,-14.5926285,5.2633123
2737,-11.702398,-13.653745,5.785546
2738,-4.9088755,-12.249757,5.4020963
2739,1.7745771,-9.459127,5.986543
2740,1.7745771,-9.459127,5.986543
2741,10.930115,-0.10229317,9.627821
2742,10.930115,-0.10229317,9.627821
2743,12.125628,0.73848486,11.170593
2744,14.05873,-0.54317075,9.290133
2745,13.239488,-0.90478605,6.571289
2746,10.537393,0.27846473,4.048656
2747,8.371888,1.2463615,9.04816
2748,8.371888,1.2463615,9.04816
2749,-0.23030917,-1.841277,12.538391
2750,-0.23030917,-1.841277,12.538391
2751,-7.2206416,-9.839885,-2.71376
2752,-7.2206416,-9.839885,-2.71376
2753,-7.2206416,-9.839885,-2.71376
2754,-3.1169505,-18.964315,-6.9969125
2755,-6.3795643,-41.050964,-2.021636
2756,-6.3795643,-41.050964,-2.021636
2757,-6.3795643,-41.050964,-2.021636
2758,-8.360822,-36.216866,2.7646074
2759,-8.379964,-29.075787,3.0400813
2760,-13.199707,-21.465414,2.1681964
2761,-13.199707,-21.465414,2.1681964
2762,-13.199707,-21.465414,2.1681964
2763,-13.199707,-21.465414,2.1681964
2764,-6.200103,-18.097218,6.262017
2765,8.484351,-15.301802,6.1974106
2766,8.484351,-15.301802,6.1974106
2767,10.961222,-14.746069,4.3983073
2768,15.749858,-14.760426,0.3786642
2769,-0.3789633,-4.1219363,-5.0901318
2770,-0.3789633,-4.1219363,-5.0901318
2771,-0.3789633,-4.1219363,-5.0901318
2772,-0.3789633,-4.1219363,-5.0901318
2773,-3.2249267,-1.5083755,-6.7932234
2774,-6.0634127,3.6083765,-8.680861
2775,-7.004988,6.2434726,-8.518149
2776,-9.50818,11.640484,-13.299607
2777,-8.02792,15.145072,-25.320251
2778,-6.108876,15.686448,-23.118555
2779,-0.37417763,9.292826,-6.4363937
2780,-0.37417763,9.292826,-6.4363937
2781,0.08344969,8.262715,-5.45414
2782,0.85483587,3.167499,-0.94337034
2783,-0.00059820566,0.17557336,2.0964117
2784,-1.68694,-6.1196437,19.885254
2785,1.3289139,-9.839885,35.64528
2786,-5.553143,-19.702202,-18.725332
2787,-5.553143,-19.702202,-18.725332
2788,-5.553143,-19.702202,-18.725332
2789,-5.553143,-19.702202,-18.725332
2790,-4.1087756,-24.991537,-11.740086
2791,0.58893347,-4.9292145,-16.95255
2792,0.58893347,-4.9292145,-16.95255
2793,0.58893347,-4.9292145,-16.95255
2794,0.58893347,-4.9292145,-16.95255
2795,-4.851448,-17.488842,-7.265208
2796,-4.851448,-17.488842,-7.265208
2797,4.3331027,-34.79882,1.4039887
2798,4.3331027,-34.79882,1.4039887
2799,4.3331027,-34.79882,1.4039887
2800,4.3331027,-34.79882,1.4039887
2801,5.9356956,-27.954748,-7.6510506
2802,4.5822554,-23.379374,-9.758828
2803,-9.11785,-20.95036,22.659431
2804,-9.11785,-20.95036,22.659431
2805,-5.445466,-12.115758,9.060123
2806,-5.445466,-12.115758,9.060123
2807,-5.445466,-12.115758,9.060123
2808,-5.445466,-12.115758,9.060123
2809,13.658531,-0.0424726,9.208479
2810,13.658531,-0.0424726,9.208479
2811,13.658531,-0.0424726,9.208479
2812,13.658531,-0.0424726,9.208479
2813,11.758928,-2.5504498,0.6373881
2814,11.758928,-2.5504498,0.6373881
2815,11.758928,-2.5504498,0.6373881
2816,11.758928,-2.5504498,0.6373881
2817,8.45803,-1.5059828,-0.8979067
2818,5.9548383,1.7446668,2.3886352
2819,4.5894337,2.2908285,10.624432
2820,-1.4353945,-0.32033914,18.155842
2821,-7.6803627,-3.10379,9.742677
2822,-9.668798,-12.118151,-1.0274183
2823,-9.668798,-12.118151,-1.0274183
2824,-7.1078796,-15.07897,-4.033701
2825,-3.1025937,-35.124542,-1.8777676
2826,-3.1025937,-35.124542,-1.8777676
2827,-3.1025937,-35.124542,-1.8777676
2828,-7.2062845,-38.24837,0.5703891
2829,-6.686444,-27.157042,2.9515467
2830,-10.418649,-24.328127,0.9200403
2831,-10.418649,-24.328127,0.9200403
2832,-10.418649,-24.328127,0.9200403
2833,-10.418649,-24.328127,0.9200403
2834,10.585249,-16.566708,6.2790656
2835,10.585249,-16.566708,6.2790656
2836,10.585249,-16.566708,6.2790656
2837,10.585249,-16.566708,6.2790656
2838,17.007586,-15.261124,-0.21535404
2839,1.5756737,-6.68764,-6.8195443
2840,1.5756737,-6.68764,-6.8195443
2841,1.5756737,-6.68764,-6.8195443
2842,1.5756737,-6.68764,-6.8195443
2843,-9.386146,10.42822,-12.877872
2844,-9.386146,10.42822,-12.877872
2845,-9.386146,10.42822,-12.877872
2846,-9.386146,10.42822,-12.877872
2847,-6.8132634,15.264713,-27.555147
2848,-3.3661032,15.64577,-17.762222
2849,-3.3661032,15.64577,-17.762222
2850,-1.090529,12.529119,-10.261919
2851,-3.394817,-5.98086,19.751255
2852,-3.394817,-5.98086,19.751255
2853,-3.394817,-5.98086,19.751255
2854,-3.394817,-5.98086,19.751255
2855,6.8410797,-12.918251,44.491844
2856,6.8410797,-12.918251,44.491844
2857,-8.648259,-22.409082,-4.7548375
2858,-8.648259,-22.409082,-4.7548375
2859,-6.7701926,-24.049961,2.2809582
2860,-4.4201417,-30.56831,-22.74019
2861,7.9716887,-4.4452662,-16.947765
2862,7.9716887,-4.4452662,-16.947765
2863,7.9716887,-4.4452662,-16.947765
2864,7.9716887,-4.4452662,-16.947765
2865,0.80189466,-34.80839,11.359627
2866,0.80189466,-34.80839,11.359627
2867,0.80189466,-34.80839,11.359627
2868,0.80189466,-34.80839,11.359627
2869,1.1255239,-34.880177,13.6355
2870,-1.6486548,-21.64996,-0.19860429
2871,-1.6486548,-21.64996,-0.19860429
2872,-1.6486548,-21.64996,-0.19860429
2873,-14.143376,-13.418949,8.142476
2874,-14.143376,-13.418949,8.142476
2875,-14.143376,-13.418949,8.142476
2876,-14.143376,-13.418949,8.142476
2877,5.6937213,-4.7159543,5.9027944
2878,5.6937213,-4.7159543,5.9027944
2879,5.6937213,-4.7159543,5.9027944
2880,5.6937213,-4.7159543,5.9027944
2881,18.282063,-1.2472588,7.3977103
2882,18.282063,-1.2472588,7.3977103
2883,18.282063,-1.2472588,7.3977103
2884,18.282063,-1.2472588,7.3977103
2885,15.4217415,-1.9492532,4.889434
2886,11.378171,-1.2711871,2.7813573
2887,6.7381887,0.8488538,5.1792645
2888,6.7381887,0.8488538,5.1792645
2889,2.457429,0.7217351,9.984651
2890,-3.531507,-1.0339985,11.177772
2891,-5.905486,-2.0210378,8.410771
2892,-9.98495,-4.7709894,2.309672
2893,-9.98495,-4.7709894,2.309672
2894,-3.6990047,-13.658531,-5.5477595
2895,-2.7146573,-15.01915,-7.0399833
2896,-7.376175,-42.59613,-3.0035906
2897,-7.376175,-42.59613,-3.0035906
2898,-7.376175,-42.59613,-3.0035906
2899,-11.307283,-42.691845,-0.011665011
2900,-6.9451675,-22.2368,3.112165
2901,-6.9451675,-22.2368,3.112165
2902,-6.9451675,-22.2368,3.112165
2903,-6.9451675,-22.2368,3.112165
2904,-6.3891354,-21.017357,5.9291153
2905,-5.1843495,-20.40659,6.7555366
2906,5.073083,-16.118652,5.7373905
2907,8.850752,-14.784354,4.6091747
2908,14.28874,-14.451452,2.1897318
2909,14.28874,-14.35544,0.66161543
2910,11.924333,-12.856038,-1.2263216
2911,3.9951165,-8.802596,-3.3870404
2912,3.9951165,-8.802596,-3.3870404
2913,1.4009976,-7.205088,-4.4602213
2914,-7.0600233,0.9924232,-11.232208
2915,-7.0600233,0.9924232,-11.232208
2916,-10.526326,9.060423,-11.035698
2917,-7.7258263,14.594125,-21.949661
2918,-7.7258263,14.594125,-21.949661
2919,-7.3402824,15.010775,-20.062023
2920,-0.66400826,3.0598218,-0.59611195
2921,-0.66400826,3.0598218,-0.59611195
2922,-0.66400826,3.0598218,-0.59611195
2923,-0.66400826,3.0598218,-0.59611195
2924,-1.864308,-3.0176485,8.669496
2925,-1.6893328,-5.5782676,16.953148
2926,3.4968112,-9.720243,24.743282
2927,-2.5325036,-21.07957,-2.0599213
2928,-2.5325036,-21.07957,-2.0599213
2929,1.5349957,-23.98057,9.855438
2930,-9.740582,-30.54438,-16.327425
2931,-10.224531,-28.536802,-14.7870455
2932,-5.162814,-17.941683,-9.797412
2933,-2.7194428,-4.4452662,-14.595321
2934,-2.7194428,-4.4452662,-14.595321
2935,-2.7194428,-4.4452662,-14.595321
2936,-2.7194428,-4.4452662,-14.595321
2937,-5.5387864,-9.782457,-11.962916
2938,-6.7869425,-27.255148,4.2690945
2939,-6.7869425,-27.255148,4.2690945
2940,-6.7869425,-27.255148,4.2690945
2941,3.961617,-34.599915,6.046663
2942,-0.5563313,-21.855743,12.715758
2943,-0.5563313,-21.855743,12.715758
2944,-0.5563313,-21.855743,12.715758
2945,-0.5563313,-21.855743,12.715758
2946,-7.117451,-14.154144,12.349058
2947,-7.117451,-14.154144,12.349058
2948,-7.117451,-14.154144,12.349058
2949,-7.117451,-14.154144,12.349058
2950,-4.434499,-12.844073,9.316455
2951,-2.1107686,-11.049756,7.1413794
2952,2.4284158,-6.0717874,7.2825556
2953,4.3211384,-3.9804604,6.8659053
2954,10.939686,1.0043873,9.038589
2955,10.939686,1.0043873,9.038589
2956,14.291133,1.4811572,8.918648
2957,15.3906355,0.027218357,4.2499523
2958,4.618148,0.3505485,8.176275
2959,4.618148,0.3505485,8.176275
2960,4.618148,0.3505485,8.176275
2961,4.618148,0.3505485,8.176275
2962,-6.27428,-12.549158,-5.873482
2963,-6.27428,-12.549158,-5.873482
2964,-6.27428,-12.549158,-5.873482
2965,-6.27428,-12.549158,-5.873482
2966,-3.004488,-23.659632,-0.52911294
2967,-3.004488,-23.659632,-0.52911294
2968,-4.4081774,-36.022747,-1.1015958
2969,-6.9786673,-38.336906,-0.9939187
2970,-7.4072814,-22.076181,0.6975078
2971,-7.4072814,-22.076181,0.6975078
2972,-7.4072814,-22.076181,0.6975078
2973,-7.4072814,-22.076181,0.6975078
2974,-8.612367,-22.368404,1.5215361
2975,-7.3689966,-20.90011,3.7707894
2976,14.425131,-14.870496,3.2533414
2977,14.425131,-14.870496,3.2533414
2978,14.425131,-14.870496,3.2533414
2979,14.425131,-14.870496,3.2533414
2980,5.3772707,-12.094223,-2.2226331
2981,5.3772707,-12.094223,-2.2226331
2982,5.3772707,-12.094223,-2.2226331
2983,-7.742875,3.8671005,-10.604691
2984,-7.742875,3.8671005,-10.604691
2985,-7.742875,3.8671005,-10.604691
2986,-7.742875,3.8671005,-10.604691
2987,-6.3053865,15.760626,-19.637896
2988,-6.3053865,15.760626,-19.637896
2989,-6.3053865,15.760626,-19.637896
2990,-6.5928245,15.981064,-15.613467
2991,-5.8453665,14.852848,-11.878869
2992,-2.1158533,10.7997055,-5.5262237
2993,-1.9791634,-4.5074797,11.009975
2994,-1.9791634,-4.5074797,11.009975
2995,-1.9791634,-4.5074797,11.009975
2996,-1.9791634,-4.5074797,11.009975
2997,-1.3277174,-8.012366,20.56332
2998,7.3489566,-13.390236,30.617064
2999,7.274779,-15.268302,22.31666
3000,-3.682255,-14.647664,-14.79901
3001,-4.286144,-10.462916,-24.68047
3002,-8.111669,-22.128824,-12.576077
3003,-8.111669,-22.128824,-12.576077
3004,-8.111669,-22.128824,-12.576077
3005,-8.111669,-22.128824,-12.576077
3006,5.2313085,-6.5342007,-20.303997
3007,5.2313085,-6.5342007,-20.303997
3008,1.2810575,-7.003792,-10.640583
3009,-1.1527423,-8.46491,-6.1920266
3010,-4.930411,-17.527126,5.7544394
3011,-5.0886364,-22.296621,8.499605
3012,2.0141585,-22.873888,-15.196816
3013,2.0141585,-22.873888,-15.196816
3014,2.0141585,-22.873888,-15.196816
3015,2.0141585,-22.873888,-15.196816
3016,-10.684551,-20.109581,21.775284
3017,-10.684551,-20.109581,21.775284
3018,-10.684551,-20.109581,21.775284
3019,-10.684551,-20.109581,21.775284
3020,-9.934701,-17.944077,7.9965143
3021,-8.8136635,-16.38216,9.194122
3022,-5.0309095,-13.227224,11.06501
3023,3.786941,-2.7062824,7.804789
3024,3.786941,-2.7062824,7.804789
3025,3.786941,-2.7062824,7.804789
3026,10.635498,-0.030508488,8.166703
3027,13.5532465,0.014955142,8.185846
3028,19.87987,0.14925231,6.818049
3029,20.184057,0.118145615,5.560322
3030,7.722536,1.7279171,2.1777678
3031,7.722536,1.7279171,2.1777678
3032,7.722536,1.7279171,2.1777678
3033,7.722536,1.7279171,2.1777678
3034,1.9567307,-0.0017946169,8.712866
3035,-4.1231327,-2.7589245,16.86222
3036,-10.500005,-5.82742,14.301303
3037,-13.132708,-7.434799,6.753144
3038,-9.227921,-12.836895,-6.8195443
3039,-2.4296124,-22.17668,-3.6481571
3040,-2.4296124,-22.17668,-3.6481571
3041,-2.2737796,-27.298517,-2.0551355
3042,-10.032806,-27.54767,4.551747
3043,-10.032806,-27.54767,4.551747
3044,-10.032806,-27.54767,4.551747
3045,-9.160921,-23.96382,3.6005998
3046,-8.746365,-23.0369,3.411567
3047,4.8792644,-16.894823,5.323133
3048,4.8792644,-16.894823,5.323133
3049,4.8792644,-16.894823,5.323133
3050,4.8792644,-16.894823,5.323133
3051,8.434102,-16.446768,5.790332
3052,9.96491,-15.076577,-0.94337034
3053,9.96491,-15.076577,-0.94337034
3054,9.96491,-15.076577,-0.94337034
3055,9.96491,-15.076577,-0.94337034
3056,-9.256635,1.7733806,-10.496715
3057,-9.256635,1.7733806,-10.496715
3058,-9.256635,1.7733806,-10.496715
3059,-9.256635,1.7733806,-10.496715
3060,-11.589935,7.874779,-11.483754
3061,-9.50818,14.950954,-16.461424
3062,-9.50818,14.950954,-16.461424
3063,2.7233312,5.043173,-4.634897
3064,2.7233312,5.043173,-4.634897
3065,2.7233312,5.043173,-4.634897
3066,2.7233312,5.043173,-4.634897
3067,2.498107,4.3005004,-3.839583
3068,-0.75254273,-8.637491,23.155344
3069,-0.75254273,-8.637491,23.155344
3070,-0.75254273,-8.637491,23.155344
3071,-2.9566314,-14.087145,0.7070791
3072,-2.9566314,-14.087145,0.7070791
3073,-2.9566314,-14.087145,0.7070791
3074,-2.9566314,-14.087145,0.7070791
3075,-3.2009985,-29.320152,24.688248
3076,-10.346565,-28.371698,-20.742184
3077,-11.058131,-26.651558,-17.383856
3078,-4.930411,-12.719348,-10.743475
3079,-0.95383894,-7.0875406,-10.324431
3080,2.1867409,-4.2296133,-11.608181
3081,1.9974087,-4.9603214,-11.277672
3082,0.8955139,-7.1186476,-9.826126
3083,2.4236302,-31.835608,-1.547259
3084,2.4236302,-31.835608,-1.547259
3085,2.4236302,-31.835608,-1.547259
3086,2.4236302,-31.835608,-1.547259
3087,-6.466005,-20.255543,19.739292
3088,-6.466005,-20.255543,19.739292
3089,-6.466005,-20.255543,19.739292
3090,-6.466005,-20.255543,19.739292
3091,-12.545569,-19.29273,17.750856
3092,-12.713366,-17.024036,10.581361
3093,-8.492427,-13.95554,9.979865
3094,-8.492427,-13.95554,9.979865
3095,-0.14177474,-11.641381,8.305488
3096,-0.14177474,-11.641381,8.305488
3097,3.9233317,-8.098508,6.9329047
3098,9.188738,-2.9985058,7.2729845
3099,10.141979,-1.9540387,7.701898
3100,14.248062,0.8344969,2.5731816
3101,14.248062,0.8344969,2.5731816
3102,14.248062,0.8344969,2.5731816
3103,11.538789,1.6175481,1.2173486
3104,11.387742,2.2405794,2.716751
3105,2.1122642,-0.23868406,13.815261
3106,2.1122642,-0.23868406,13.815261
3107,-6.087341,-10.383654,0.87218386
3108,-6.087341,-10.383654,0.87218386
3109,-6.087341,-10.383654,0.87218386
3110,-6.087341,-10.383654,0.87218386
3111,-4.4392843,-13.064214,-2.3186452
3112,-8.236095,-38.157146,-2.9270203
3113,-8.236095,-38.157146,-2.9270203
3114,-8.236095,-38.157146,-2.9270203
3115,-8.236095,-38.157146,-2.9270203
3116,-10.150353,-27.293732,1.5622141
3117,-9.388538,-23.772095,1.9597218
3118,-10.408778,-20.921644,5.3350973
3119,-10.408778,-20.921644,5.3350973
3120,-10.408778,-20.921644,5.3350973
3121,-0.87248296,-17.63241,7.821539
3122,-0.87248296,-17.63241,7.821539
3123,13.038192,-15.831214,3.679862
3124,13.038192,-15.831214,3.679862
3125,13.970196,-15.943676,3.0592237
3126,13.996517,-15.47887,0.1274178
3127,10.264312,-13.040285,-1.6381862
3128,5.1619167,-9.888041,-3.135495
3129,-0.79112697,-5.573482,-5.9141603
3130,-3.8811584,-3.0463624,-7.2699933
3131,-5.6036916,-1.489233,-8.000702
3132,-8.26481,4.3869414,-9.64158
3133,-9.251849,7.9369926,-10.353146
3134,-7.3881392,12.086147,-13.328321
3135,-5.4143596,14.548661,-19.223639
3136,0.68225354,5.7379885,-4.6085763
3137,0.68225354,5.7379885,-4.6085763
3138,0.68225354,5.7379885,-4.6085763
3139,0.68225354,5.7379885,-4.6085763
3140,-0.5371887,0.7360921,1.6794624
3141,-1.0328021,-1.3360924,5.6297135
3142,-0.4004987,-6.855138,25.965117
3143,-1.7874385,-18.890139,0.5273183
3144,-1.7874385,-18.890139,0.5273183
3145,-1.7874385,-18.890139,0.5273183
3146,-1.7874385,-18.890139,0.5273183
3147,-1.4784653,-11.066505,-15.20878
3148,-1.4784653,-11.066505,-15.20878
3149,-1.4784653,-11.066505,-15.20878
3150,-1.4784653,-11.066505,-15.20878
3151,0.31345975,-6.8168526,-12.84198
3152,2.8501508,-2.885744,-13.555939
3153,0.9625129,-6.6011996,-10.7793665
3154,0.9625129,-6.6011996,-10.7793665
3155,-4.583153,-27.08765,9.328419
3156,-4.583153,-27.08765,9.328419
3157,1.843969,-21.78635,-5.564509
3158,1.843969,-21.78635,-5.564509
3159,1.843969,-21.78635,-5.564509
3160,1.843969,-21.78635,-5.564509
3161,-2.7361927,-21.553947,6.8874407
3162,-8.794222,-20.792133,18.4696
3163,-12.375679,-17.932112,17.279171
3164,-5.38086,-11.947962,8.540283
3165,-5.38086,-11.947962,8.540283
3166,-5.38086,-11.947962,8.540283
3167,-5.38086,-11.947962,8.540283
3168,11.962618,-0.0017946169,9.143872
3169,11.962618,-0.0017946169,9.143872
3170,11.962618,-0.0017946169,9.143872
3171,11.962618,-0.0017946169,9.143872
3172,14.784653,0.6236294,5.919544
3173,8.778967,1.1673983,6.381957
3174,8.778967,1.1673983,6.381957
3175,8.778967,1.1673983,6.381957
3176,8.778967,1.1673983,6.381957
3177,4.88405,0.54675996,8.794222
3178,-0.52522457,-0.80907315,10.466207
3179,-6.0107703,-12.626028,-0.13369897
3180,-6.0107703,-12.626028,-0.13369897
3181,-6.0107703,-12.626028,-0.13369897
3182,-6.0107703,-12.626028,-0.13369897
3183,0.5024927,-29.408688,-1.9040886
3184,0.5024927,-29.408688,-1.9040886
3185,0.5024927,-29.408688,-1.9040886
3186,-2.079662,-40.72046,-6.0170517
3187,-9.172886,-42.811783,-3.6338003
3188,-11.086844,-26.905497,3.1313076
3189,-7.8409805,-18.624235,1.4327025
3190,-7.8409805,-18.624235,1.4327025
3191,-7.8409805,-18.624235,1.4327025
3192,6.814759,-14.484952,7.007082
3193,6.814759,-14.484952,7.007082
3194,6.814759,-14.484952,7.007082
3195,6.814759,-14.484952,7.007082
3196,12.401102,-14.973686,1.8903298
3197,8.1179495,-11.912069,-3.3197422
3198,8.1179495,-11.912069,-3.3197422
3199,8.1179495,-11.912069,-3.3197422
3200,2.1218355,-7.636095,-3.0035906
3201,-5.371289,-1.6833507,-6.180063
3202,-5.371289,-1.6833507,-6.180063
3203,-6.667301,0.9517452,-7.1192455
3204,-7.7811604,6.3104715,-7.272386
3205,-5.8334026,13.070495,-16.013666
3206,-5.8334026,13.070495,-16.013666
3207,-4.9088755,13.89213,-16.557436
3208,-3.6990047,12.799807,-11.227423
3209,-0.34785658,5.967999,-3.7486558
3210,-0.34785658,5.967999,-3.7486558
3211,-0.60658056,-0.42801616,5.8740807
3212,-0.60658056,-0.42801616,5.8740807
3213,-0.45553362,-2.4308088,11.956337
3214,4.6061835,-6.9173512,25.792534
3215,-5.668298,-13.936398,-5.942874
3216,-5.668298,-13.936398,-5.942874
3217,-5.864808,-10.599307,4.3241296
3218,-3.3852458,-15.167504,43.03312
3219,-10.051949,-29.538198,-17.695223
3220,-12.437892,-31.315767,-20.210379
3221,-7.443174,-26.114967,-11.057234
3222,-1.5382859,-15.471692,-10.920842
3223,4.435994,-10.15155,-11.9051895
3224,6.8985076,-8.541779,-8.9348
3225,5.0012984,-16.08276,0.019441685
3226,5.0012984,-16.08276,0.019441685
3227,-1.1718849,-25.928028,-0.19621146
3228,-1.1718849,-25.928028,-0.19621146
3229,0.4761717,-26.469704,-7.780263
3230,-8.329715,-20.660528,15.209379
3231,-8.329715,-20.660528,15.209379
3232,-8.329715,-20.660528,15.209379
3233,-8.329715,-20.660528,15.209379
3234,-13.992629,-20.231615,21.837797
3235,-16.196419,-18.37269,15.935302
3236,-3.7133617,-14.027325,8.889935
3237,-3.7133617,-14.027325,8.889935
3238,-3.7133617,-14.027325,8.889935
3239,-3.7133617,-14.027325,8.889935
3240,3.841976,-8.263613,5.339883
3241,7.1835527,-4.7829533,6.849156
3242,11.478669,-1.2616158,9.04816
3243,12.116057,0.5204389,3.4881372
3244,12.116057,0.5204389,3.4881372
3245,12.116057,0.5204389,3.4881372
3246,12.116057,0.5204389,3.4881372
3247,-4.755436,-2.684747,10.162019
3248,-4.755436,-2.684747,10.162019
3249,-4.755436,-2.684747,10.162019
3250,-4.755436,-2.684747,10.162019
3251,-2.1107686,-20.245972,-5.087739
3252,-2.1107686,-20.245972,-5.087739
3253,-2.1107686,-20.245972,-5.087739
3254,-2.1107686,-20.245972,-5.087739
3255,-1.7371893,-35.507694,-4.9486566
3256,-1.7371893,-35.507694,-4.9486566
3257,-10.291531,-33.234512,3.629613
3258,-10.291531,-33.234512,3.629613
3259,-11.03181,-27.712774,3.682255
3260,-10.241281,-21.604197,0.46271208
3261,-10.662717,-20.799313,-0.13130614
3262,-12.18874,-20.981466,1.2556337
3263,-12.488141,-20.78974,2.5731816
3264,-6.5090756,-18.137896,7.8670025
3265,6.9822564,-14.865709,5.965008
3266,6.9822564,-14.865709,5.965008
3267,11.557932,-14.003396,3.6463625
3268,4.9103713,-8.699705,-1.506581
3269,4.9103713,-8.699705,-1.506581
3270,4.9103713,-8.699705,-1.506581
3271,4.9103713,-8.699705,-1.506581
3272,0.37806597,-4.028616,-4.738088
3273,-2.161317,-1.87029,-7.006484
3274,-4.099204,0.35533416,-7.90469
3275,-5.040481,3.8120656,-8.803194
3276,-3.545864,9.482158,-21.120848
3277,-5.2680984,13.585549,-16.794624
3278,-5.2680984,13.585549,-16.794624
3279,-4.6525445,12.610773,-9.41157
3280,-3.3493536,10.021141,-5.619544
3281,-2.8342984,7.2640114,-4.002594
3282,-2.6090739,4.267001,-2.2274187
3283,-2.784049,-3.1420753,11.2017
3284,-2.784049,-3.1420753,11.2017
3285,3.5114672,-13.052249,31.21856
3286,3.5114672,-13.052249,31.21856
3287,-6.413363,-13.397414,-12.3149605
3288,-6.413363,-13.397414,-12.3149605
3289,-0.9729815,-13.905291,9.009874
3290,-7.5056863,-29.854351,-25.16442
3291,-10.483255,-30.570702,-17.678473
3292,-6.324529,-22.607986,-11.744871
3293,-3.505186,-16.861324,-11.169995
3294,5.3629136,-7.9450684,-12.57847
3295,2.658426,-12.446267,-2.8839495
3296,2.658426,-12.446267,-2.8839495
3297,0.90029955,-28.371698,-1.8203398
3298,0.90029955,-28.371698,-1.8203398
3299,0.90029955,-28.371698,-1.8203398
3300,0.90029955,-28.371698,-1.8203398
3301,2.6129622,-26.840889,-9.675079
3302,2.8286154,-22.885853,-11.766406
3303,-9.664013,-20.629421,18.651752
3304,-9.664013,-20.629421,18.651752
3305,-13.024732,-16.755741,12.629318
3306,-13.024732,-16.755741,12.629318
3307,-11.067702,-15.910177,9.024232
3308,-5.8477592,-14.068003,7.974979
3309,8.369495,-0.83060855,7.689934
3310,8.369495,-0.83060855,7.689934
3311,8.369495,-0.83060855,7.689934
3312,8.369495,-0.83060855,7.689934
3313,9.96491,0.54675996,9.119945
3314,13.970196,1.7350955,9.915258
3315,13.970196,1.7350955,9.915258
3316,13.3687,0.63559353,2.6138597
3317,9.353843,1.1530414,1.9669002
3318,9.353843,1.1530414,1.9669002
3319,8.1586275,1.2583256,3.9098723
3320,4.776074,0.6667002,9.084052
3321,-4.0417767,-11.047363,-0.86919284
3322,-4.0417767,-11.047363,-0.86919284
3323,-4.0417767,-11.047363,-0.86919284
3324,-4.0417767,-11.047363,-0.86919284
3325,-2.8869405,-13.684852,-5.578866
3326,-2.3623142,-19.49612,-7.008877
3327,-2.434398,-26.455048,-3.3436706
3328,-5.9676995,-36.037106,-4.3522453
3329,-11.482259,-27.288946,2.3168504
3330,-11.482259,-27.288946,2.3168504
3331,-11.331212,-21.556341,5.5579286
3332,-11.331212,-21.556341,5.5579286
3333,-11.331212,-21.556341,5.5579286
3334,-11.331212,-21.556341,5.5579286
3335,-10.054341,-20.857038,6.0801625
3336,2.251347,-17.115263,7.3256264
3337,7.5215387,-16.700706,7.3256264
3338,13.249059,-17.014465,4.2690945
3339,15.625431,-17.337795,3.0930223
3340,14.726926,-16.887646,-0.8668
3341,4.258626,-10.275977,-2.9341989
3342,4.258626,-10.275977,-2.9341989
3343,-9.733404,4.47069,-9.193523
3344,-9.733404,4.47069,-9.193523
3345,-9.733404,4.47069,-9.193523
3346,-9.733404,4.47069,-9.193523
3347,-10.380065,6.5548387,-8.944371
3348,-8.16431,13.178471,-14.128421
3349,-8.16431,13.178471,-14.128421
3350,-8.16431,13.178471,-14.128421
3351,-8.16431,13.178471,-14.128421
3352,1.2690933,6.8015985,-5.4876394
3353,1.2690933,6.8015985,-5.4876394
3354,0.3804588,0.7001997,-0.2321038
3355,3.3819556,-12.87518,17.377275
3356,3.3819556,-12.87518,17.377275
3357,3.3819556,-12.87518,17.377275
3358,3.3819556,-12.87518,17.377275
3359,-7.071987,-13.969897,-9.689436
3360,-13.304991,-31.838001,-18.05923
3361,-13.304991,-31.838001,-18.05923
3362,-13.304991,-31.838001,-18.05923
3363,-13.304991,-31.838001,-18.05923
3364,6.862615,-6.574878,-10.9017
3365,6.862615,-6.574878,-10.9017
3366,6.862615,-6.574878,-10.9017
3367,6.862615,-6.574878,-10.9017
3368,3.6263227,-18.044575,2.743072
3369,3.6263227,-18.044575,2.743072
3370,0.3900301,-23.508585,6.6215386
3371,-0.82941216,-26.41437,4.237988
3372,1.3073785,-25.61427,-7.353742
3373,-14.984453,-20.49034,18.23241
3374,-14.984453,-20.49034,18.23241
3375,-14.984453,-20.49034,18.23241
3376,-14.984453,-20.49034,18.23241
3377,-15.920944,-20.44009,17.657536
3378,-12.260524,-16.604992,9.409775
3379,-8.645866,-15.426229,8.868399
3380,0.35413775,-10.678569,5.3159547
3381,0.35413775,-10.678569,5.3159547
3382,13.009478,-0.05682954,10.5284195
3383,13.009478,-0.05682954,10.5284195
3384,13.009478,-0.05682954,10.5284195
3385,13.009478,-0.05682954,10.5284195
3386,15.74268,-0.31316066,10.72493
3387,9.591031,-1.1300105,2.611467
3388,9.591031,-1.1300105,2.611467
3389,9.591031,-1.1300105,2.611467
3390,9.591031,-1.1300105,2.611467
3391,-6.9786673,-3.5183465,6.702894
3392,-6.9786673,-3.5183465,6.702894
3393,-6.9786673,-3.5183465,6.702894
3394,-8.262417,-4.1458645,3.653541
3395,-8.123632,-5.3653064,1.7802601
3396,-1.334896,-26.057539,-0.72083783
3397,-1.334896,-26.057539,-0.72083783
3398,-1.334896,-26.057539,-0.72083783
3399,-3.1265218,-35.146076,-2.9916265
3400,-9.642477,-42.78995,-2.00698
3401,-13.333705,-38.72006,0.80997044
3402,-12.780365,-26.646772,1.7850457
3403,-7.0600233,-17.313866,7.7904325
3404,-7.0600233,-17.313866,7.7904325
3405,-7.0600233,-17.313866,7.7904325
3406,-7.0600233,-17.313866,7.7904325
3407,-4.4895334,-16.499409,8.621639
3408,9.413962,-14.298013,6.259624
3409,9.413962,-14.298013,6.259624
3410,10.187443,-12.882359,-2.6778677
3411,10.187443,-12.882359,-2.6778677
3412,10.187443,-12.882359,-2.6778677
3413,1.0271192,-6.277869,-4.874479
3414,1.0271192,-6.277869,-4.874479
3415,-1.2125629,-4.4979086,-5.7583275
3416,-5.6036916,1.0522437,-7.339385
3417,-6.5018973,15.183357,-20.780767
3418,-6.5018973,15.183357,-20.780767
3419,-6.5018973,15.183357,-20.780767
3420,-6.5018973,15.183357,-20.780767
3421,-6.6720867,15.137894,-20.814266
3422,-0.45074797,2.6715865,-3.0873394
3423,-0.45074797,2.6715865,-3.0873394
3424,-0.45074797,2.6715865,-3.0873394
3425,-0.45074797,2.6715865,-3.0873394
3426,-1.7491534,-1.1611172,0.82911307
3427,-2.772085,-4.5245285,8.741579
3428,3.6957145,-10.081859,38.785862
3429,-8.5067835,-24.145973,-4.5008993
3430,-8.5067835,-24.145973,-4.5008993
3431,-0.036490545,-29.346474,-5.768198
3432,-0.036490545,-29.346474,-5.768198
3433,-1.727618,-30.714272,-9.109775
3434,-4.8562336,-18.952353,-11.248959
3435,-3.679862,-13.871492,-12.259926
3436,-5.4957156,-8.797811,-9.018847
3437,-5.4957156,-8.797811,-9.018847
3438,-5.4957156,-8.797811,-9.018847
3439,-5.4957156,-8.797811,-9.018847
3440,-8.068598,-20.995823,0.03379862
3441,-5.7209396,-26.716164,7.943872
3442,-0.10827523,-31.962427,10.468599
3443,1.1470593,-31.895428,8.621639
3444,4.4001017,-25.264618,-10.698011
3445,4.74736,-24.090939,-12.669397
3446,4.7952166,-21.01018,-10.190134
3447,3.1830523,-21.005394,-2.2417758
3448,-6.4851475,-20.957537,21.233908
3449,-9.920343,-19.4363,17.707785
3450,-10.823335,-15.634703,9.793225
3451,-10.035199,-14.233406,9.637392
3452,-4.968696,-12.736097,9.000303
3453,-3.5769708,-12.654741,8.269595
3454,1.3914263,-7.5140615,5.8621163
3455,13.406985,-0.8234301,8.990732
3456,13.406985,-0.8234301,8.990732
3457,13.406985,-0.8234301,8.990732
3458,13.406985,-0.8234301,8.990732
3459,10.429417,-2.5241287,2.0964117
3460,10.429417,-2.5241287,2.0964117
3461,10.429417,-2.5241287,2.0964117
3462,7.516454,-0.98853487,1.6698911
3463,6.646962,0.09661021,2.376671
3464,3.554538,0.21625134,11.330913
3465,-5.0069814,-4.1697927,6.017949
3466,-5.0069814,-4.1697927,6.017949
3467,-6.0490556,-7.2768726,0.47946185
3468,-4.0106697,-16.403696,-7.8424764
3469,-4.0106697,-16.403696,-7.8424764
3470,-1.9767706,-26.74039,-1.0202397
3471,-9.242277,-22.778175,3.2389846
3472,-9.242277,-22.778175,3.2389846
3473,-9.242277,-22.778175,3.2389846
3474,-9.242277,-22.778175,3.2389846
3475,-9.714262,-21.671495,1.8161523
3476,-10.1237335,-21.335901,-0.22731815
3477,-12.260524,-21.992434,-0.5673981
3478,-14.32553,-20.274685,-0.2416751
3479,9.38495,-14.836996,4.592425
3480,9.38495,-14.836996,4.592425
3481,9.38495,-14.836996,4.592425
3482,9.38495,-14.836996,4.592425
3483,9.8473625,-11.698809,-1.2598212
3484,9.8473625,-11.698809,-1.2598212
3485,9.8473625,-11.698809,-1.2598212
3486,9.8473625,-11.698809,-1.2598212
3487,-5.6850476,4.4802613,-7.262815
3488,-5.6850476,4.4802613,-7.262815
3489,-5.6850476,4.4802613,-7.262815
3490,-5.6850476,4.4802613,-7.262815
3491,-6.4420767,13.188042,-13.443176
3492,-6.4420767,13.188042,-13.443176
3493,-6.4420767,13.188042,-13.443176
3494,-6.4420767,13.188042,-13.443176
3495,-4.7602215,12.08854,-10.875379
3496,-1.2628121,7.3788667,-6.556035
3497,-1.2628121,7.3788667,-6.556035
3498,-1.4377873,1.186541,0.68075806
3499,-3.1073792,-15.368801,9.594321
3500,-3.1073792,-15.368801,9.594321
3501,-3.1073792,-15.368801,9.594321
3502,-3.1073792,-15.368801,9.594321
3503,-9.841082,-16.425232,-15.539289
3504,-9.841082,-16.425232,-15.539289
3505,-5.512465,-29.868708,-26.09373
3506,-0.35264224,-12.597314,-10.302597
3507,-0.35264224,-12.597314,-10.302597
3508,-0.35264224,-12.597314,-10.302597
3509,-5.36411,-14.870496,-0.27038896
3510,-5.36411,-14.870496,-0.27038896
3511,-5.36411,-14.870496,-0.27038896
3512,-5.36411,-14.870496,-0.27038896
3513,-3.3086755,-24.821348,3.979264
3514,-3.3086755,-24.821348,3.979264
3515,1.015155,-26.53431,-8.800801
3516,1.015155,-26.53431,-8.800801
3517,1.7386848,-25.127928,-11.507682
3518,1.7602202,-21.230618,-8.190034
3519,-7.0408807,-21.185154,21.078375
3520,-7.0408807,-21.185154,21.078375
3521,-7.0408807,-21.185154,21.078375
3522,-4.880162,-12.728919,8.327023
3523,-4.880162,-12.728919,8.327023
3524,-4.880162,-12.728919,8.327023
3525,-4.880162,-12.728919,8.327023
3526,-1.1814562,-9.967004,5.826224
3527,9.612567,-2.1816561,9.357133
3528,9.612567,-2.1816561,9.357133
3529,9.612567,-2.1816561,9.357133
3530,10.937293,-0.5168497,3.0640094
3531,10.937293,-0.5168497,3.0640094
3532,10.937293,-0.5168497,3.0640094
3533,10.937293,-0.5168497,3.0640094
3534,8.467601,1.1051849,2.7382865
3535,-4.3292146,-3.2380872,5.2274203
3536,-4.3292146,-3.2380872,5.2274203
3537,-4.3292146,-3.2380872,5.2274203
3538,-4.3292146,-3.2380872,5.2274203
3539,-0.49142596,-13.315759,-10.817652
3540,-0.49142596,-13.315759,-10.817652
3541,-0.49142596,-13.315759,-10.817652
3542,-9.697512,-34.460835,1.468894
3543,-9.697512,-34.460835,1.468894
3544,-9.697512,-34.460835,1.468894
3545,-9.805189,-32.963825,2.934797
3546,-14.3925295,-25.398914,0.3714857
3547,-14.3925295,-25.398914,0.3714857
3548,-14.3925295,-25.398914,0.3714857
3549,-13.166207,-19.05315,2.335993
3550,-13.166207,-19.05315,2.335993
3551,-13.166207,-19.05315,2.335993
3552,0.059521463,-14.813067,6.128019
3553,4.2969112,-14.425131,4.2260237
3554,10.47518,-15.337694,3.7229328
3555,11.58186,-15.409479,3.6918263
3556,1.4177474,-6.040681,-3.0681968
3557,1.4177474,-6.040681,-3.0681968
3558,1.4177474,-6.040681,-3.0681968
3559,1.4177474,-6.040681,-3.0681968
3560,-1.4736797,-1.7144574,-5.7607207
3561,-3.2823544,0.060717873,-7.3585277
3562,-4.8299127,2.8465617,-8.180463
3563,-6.3341007,10.12164,-11.927025
3564,-6.3341007,10.12164,-11.927025
3565,-5.677869,14.215759,-20.225035
3566,-5.6204414,15.228821,-17.788542
3567,-4.523332,13.992928,-12.362818
3568,-2.772085,11.604591,-9.152845
3569,-0.6687939,6.9619174,-6.573084
3570,-0.24975087,3.507878,-2.8166513
3571,-0.46031925,0.44626144,1.3034902
3572,7.5693955,-15.177075,20.158335
3573,7.5693955,-15.177075,20.158335
3574,7.5693955,-15.177075,20.158335
3575,-2.5851457,-16.487446,-24.395426
3576,-8.037491,-24.004498,-12.940085
3577,-8.037491,-24.004498,-12.940085
3578,-8.037491,-24.004498,-12.940085
3579,-8.037491,-24.004498,-12.940085
3580,-3.641577,-14.724533,-9.423533
3581,1.7937196,-7.846963,-10.51825
3582,3.2934213,-3.9421754,-9.682258
3583,1.3674982,-4.833502,-8.975478
3584,-4.1614175,-11.947962,-4.158128
3585,-4.278965,-23.218754,7.6130643
3586,-4.278965,-23.218754,7.6130643
3587,4.098307,-21.834208,-7.5382886
3588,4.098307,-21.834208,-7.5382886
3589,4.098307,-21.834208,-7.5382886
3590,4.098307,-21.834208,-7.5382886
3591,1.410569,-20.071295,-1.2717853
3592,-2.3814569,-19.656738,9.349955
3593,-7.555936,-18.303299,18.476778
3594,-9.122637,-15.2324095,13.019946
3595,-9.18485,-13.658531,8.729615
3596,-7.282855,-11.2343025,5.2441697
3597,-7.282855,-11.2343025,5.2441697
3598,0.7516454,-9.883255,6.997511
3599,13.747364,-1.4437693,11.137094
3600,13.747364,-1.4437693,11.137094
3601,13.747364,-1.4437693,11.137094
3602,13.747364,-1.4437693,11.137094
3603,10.738688,-1.4006985,3.6224344
3604,10.738688,-1.4006985,3.6224344
3605,10.738688,-1.4006985,3.6224344
3606,10.738688,-1.4006985,3.6224344
3607,-5.337789,-2.833102,4.0797625
3608,-5.337789,-2.833102,4.0797625
3609,-5.337789,-2.833102,4.0797625
3610,-5.337789,-2.833102,4.0797625
3611,-3.5673995,-10.115358,-2.821736
3612,-3.5673995,-10.115358,-2.821736
3613,-1.1383854,-21.836601,-2.1532412
3614,-1.1383854,-21.836601,-2.1532412
3615,-1.1383854,-21.836601,-2.1532412
3616,-7.0169525,-40.84728,-1.43689
3617,-6.940382,-20.617456,1.2843475
3618,-6.940382,-20.617456,1.2843475
3619,-6.940382,-20.617456,1.2843475
3620,-6.940382,-20.617456,1.2843475
3621,-8.346464,-21.635303,1.8305093
3622,-10.713265,-22.524239,5.2202415
3623,-9.719048,-21.795923,6.841977
3624,-3.493222,-18.140287,7.9797645
3625,3.3317065,-16.089937,5.323133
3626,8.810074,-15.2419815,1.1763715
3627,11.002198,-15.553348,0.32362926
3628,12.4274235,-14.846567,-2.102992
3629,8.355139,-12.803097,-2.7376883
3630,3.5353954,-9.931111,-2.4263222
3631,1.2427722,-8.129615,-2.8118658
3632,-3.1504502,-3.918247,-5.365606
3633,-7.7763743,2.3626132,-7.356135
3634,-7.7763743,2.3626132,-7.356135
3635,-9.824331,6.6481586,-7.468897
3636,-8.641081,13.058531,-11.172388
3637,-7.1748786,14.529518,-13.136597
3638,1.2762718,6.430113,-7.0878396
3639,1.2762718,6.430113,-7.0878396
3640,1.2762718,6.430113,-7.0878396
3641,-1.0375878,0.36251262,4.2451663
3642,-1.0375878,0.36251262,4.2451663
3643,-1.0375878,0.36251262,4.2451663
3644,2.1194427,-5.506483,36.141193
3645,3.5569308,-8.49123,36.035908
3646,0.6774679,-12.920644,-12.300604
3647,-1.5071791,-9.523733,-18.591036
3648,0.19591236,-15.212968,35.49214
3649,-16.78565,-35.589348,-18.809082
3650,-16.78565,-35.589348,-18.809082
3651,-15.484853,-35.373695,-14.334503
3652,3.1926236,-3.4561331,-1.9854445
3653,3.1926236,-3.4561331,-1.9854445
3654,3.1926236,-3.4561331,-1.9854445
3655,3.1926236,-3.4561331,-1.9854445
3656,1.2475579,-31.572098,-3.9619162
3657,1.2475579,-31.572098,-3.9619162
3658,1.2475579,-31.572098,-3.9619162
3659,1.2475579,-31.572098,-3.9619162
3660,6.0433726,-24.541088,-7.557431
3661,6.0433726,-24.541088,-7.557431
3662,-7.64447,-19.841286,21.248264
3663,-7.64447,-19.841286,21.248264
3664,-7.64447,-19.841286,21.248264
3665,-7.64447,-19.841286,21.248264
3666,-2.4487548,-13.234403,9.709177
3667,-2.4487548,-13.234403,9.709177
3668,-2.4487548,-13.234403,9.709177
3669,-2.4487548,-13.234403,9.709177
3670,0.32063824,-10.858031,7.160522
3671,1.6621144,-8.486444,5.756832
3672,4.982156,-3.6188452,7.9893355
3673,12.18545,-0.72023964,3.940979
3674,12.18545,-0.72023964,3.940979
3675,12.18545,-0.72023964,3.940979
3676,12.18545,-0.72023964,3.940979
3677,12.336197,0.00059820566,4.3480577
3678,11.758928,1.0067801,4.9471607
3679,-5.9581285,-4.124329,4.7171507
3680,-5.9581285,-4.124329,4.7171507
3681,-5.9581285,-4.124329,4.7171507
3682,-5.9581285,-4.124329,4.7171507
3683,-6.456434,-5.9473605,1.4808581
3684,-3.4716866,-12.786346,-8.65454
3685,-3.3876386,-16.1354,-7.0902324
3686,-2.3048863,-23.139791,-1.3914263
3687,-2.9012976,-29.372795,0.6445666
3688,-7.795517,-34.24548,0.8913264
3689,-10.799407,-30.09154,3.313162
3690,-11.582757,-25.945076,0.53210396
3691,-9.481859,-23.010578,0.1680958
3692,-9.481859,-23.010578,0.1680958
3693,-8.257631,-21.769602,5.418846
3694,-8.257631,-21.769602,5.418846
3695,0.5479564,-17.498413,7.3375907
3696,0.5479564,-17.498413,7.3375907
3697,13.107583,-16.91875,3.3613176
3698,13.107583,-16.91875,3.3613176
3699,15.359529,-17.289938,2.5082762
3700,12.990335,-17.127226,1.1835499
3701,-6.8922267,-1.5777674,-10.353146
3702,-6.8922267,-1.5777674,-10.353146
3703,-6.8922267,-1.5777674,-10.353146
3704,-6.8922267,-1.5777674,-10.353146
3705,-11.987443,9.712168,-11.936596
3706,-11.987443,9.712168,-11.936596
3707,-13.6860485,13.197614,-11.677872
3708,-10.837692,19.183857,-20.241783
3709,-8.614759,19.224535,-20.998514
3710,3.3580275,5.2085767,-4.026522
3711,3.3580275,5.2085767,-4.026522
3712,3.3580275,5.2085767,-4.026522
3713,2.5124638,3.5605202,-2.6778677
3714,0.24137598,-0.83778703,5.454738
3715,0.28205398,-2.7014968,12.260524
3716,5.6793647,-7.9737825,27.189344
3717,-2.0605195,-12.470195,-22.229921
3718,-2.0605195,-12.470195,-22.229921
3719,-2.3623142,-10.997114,-18.955343
3720,0.9768698,-17.752352,26.729324
3721,-3.054737,-14.55195,-5.3943195
3722,-3.054737,-14.55195,-5.3943195
3723,-3.054737,-14.55195,-5.3943195
3724,-3.054737,-14.55195,-5.3943195
3725,2.996412,-14.571094,-2.891128
3726,2.996412,-14.571094,-2.891128
3727,2.996412,-14.571094,-2.891128
3728,2.996412,-14.571094,-2.891128
3729,-0.695115,-23.472692,-4.340281
3730,2.6368906,-24.828526,-3.882654
3731,2.6368906,-24.828526,-3.882654
3732,2.6368906,-24.828526,-3.882654
3733,2.6368906,-24.828526,-3.882654
3734,-1.8954146,-22.754248,8.065906
3735,-11.621042,-19.68306,18.280268
3736,-11.621042,-19.68306,18.280268
3737,-11.846267,-16.861324,11.014761
3738,-9.58475,-13.893327,7.637292
3739,-6.056234,-11.825928,7.943872
3740,-6.056234,-11.825928,7.943872
3741,2.3566313,-5.341378,5.878866
3742,2.3566313,-5.341378,5.878866
3743,4.6731825,-3.2739797,7.0286174
3744,10.2571335,-0.035294134,11.283056
3745,13.210773,0.55393845,3.327519
3746,13.210773,0.55393845,3.327519
3747,13.210773,0.55393845,3.327519
3748,13.210773,0.55393845,3.327519
3749,12.307484,1.1243275,3.1600213
3750,10.177871,1.8978075,5.428417
3751,2.4308088,-0.6436693,9.812367
3752,-1.6342978,-2.3682961,8.846864
3753,-5.4311094,-4.1291146,6.087341
3754,-7.112665,-9.003893,1.8855443
3755,-4.7362933,-16.628922,-6.8724856
3756,-4.7362933,-16.628922,-6.8724856
3757,-4.8658047,-21.388844,-2.1221347
3758,-6.0370917,-32.836704,-0.061914288
3759,-10.037592,-30.939495,1.5311074
3760,-10.037592,-30.939495,1.5311074
3761,-9.958629,-26.948566,2.161018
3762,-9.208778,-22.615166,1.9932213
3763,-9.163314,-22.069004,1.483251
3764,-10.164711,-22.291836,2.1658037
3765,-3.4307094,-18.217157,7.605886
3766,-3.4307094,-18.217157,7.605886
3767,-3.4307094,-18.217157,7.605886
3768,9.413962,-16.710278,3.3299117
3769,16.353746,-17.203796,0.77647096
3770,16.353746,-17.203796,0.77647096
3771,15.663716,-17.132011,0.9921241
3772,9.176774,-14.333905,0.18484555
3773,5.8013983,-11.322837,-1.4823537
3774,-7.55115,1.7183458,-9.268001
3775,-7.55115,1.7183458,-9.268001
3776,-7.55115,1.7183458,-9.268001
3777,-3.751946,17.17897,-20.67279
3778,-3.751946,17.17897,-20.67279
3779,-3.751946,17.17897,-20.67279
3780,-3.751946,17.17897,-20.67279
3781,-1.2891332,13.547264,-17.443678
3782,2.4478576,8.039884,-9.98166
3783,2.5698915,6.5835524,-7.2699933
3784,0.4211368,-5.549554,17.554644
3785,0.4211368,-5.549554,17.554644
3786,0.4211368,-5.549554,17.554644
3787,0.4211368,-5.549554,17.554644
3788,-2.6090739,-20.650957,5.488537
3789,-2.6090739,-20.650957,5.488537
3790,-2.6090739,-20.650957,5.488537
3791,-2.6090739,-20.650957,5.488537
3792,-14.052449,-29.770601,-18.085852
3793,-14.052449,-29.770601,-18.085852
3794,3.8515472,-5.8537416,-5.7658052
3795,3.8515472,-5.8537416,-5.7658052
3796,3.8515472,-5.8537416,-5.7658052
3797,3.8515472,-5.8537416,-5.7658052
3798,3.243172,-11.560025,-3.9020956
3799,4.011866,-16.88286,-0.32542387
3800,2.5435705,-23.568705,5.0620165
3801,1.0992029,-28.98486,6.135197
3802,3.1686954,-29.588448,-5.521438
3803,5.406284,-28.01457,-13.141382
3804,-12.545569,-18.875782,23.365913
3805,-12.545569,-18.875782,23.365913
3806,-12.545569,-18.875782,23.365913
3807,-12.545569,-18.875782,23.365913
3808,-13.487144,-15.167504,9.646963
3809,3.3053854,-10.58495,7.433603
3810,3.3053854,-10.58495,7.433603
3811,3.3053854,-10.58495,7.433603
3812,3.3053854,-10.58495,7.433603
3813,16.634007,-0.4447659,7.574779
3814,16.634007,-0.4447659,7.574779
3815,16.634007,-0.4447659,7.574779
3816,16.634007,-0.4447659,7.574779
3817,16.634007,-0.4447659,7.574779
3818,12.8010025,-0.07597212,4.7458644
3819,8.0677,0.027218357,9.419347
3820,8.0677,0.027218357,9.419347
3821,2.8166513,-0.70348984,13.422239
3822,-6.168996,-3.784249,7.440781
3823,-6.168996,-3.784249,7.440781
3824,-8.952447,-6.3951178,-0.104985096
3825,-6.98106,-9.665209,-1.137488
3826,-4.3818564,-16.556837,-5.0015974
3827,-4.032205,-18.861425,-3.7773697
3828,-2.6907291,-31.306196,0.6541379
3829,-5.8046885,-40.758743,-1.2454642
3830,-9.570394,-36.051464,0.33559337
3831,-10.118948,-28.453054,-0.08823533
3832,-9.742975,-24.311077,0.87218386
3833,-8.981161,-21.954147,1.7778672
3834,-9.599107,-20.061724,2.6976085
3835,-9.520144,-19.628025,4.1781673
3836,-2.475076,-18.676878,8.7367935
3837,1.0390832,-18.339191,8.708079
3838,10.585249,-16.497017,4.453641
3839,13.347165,-16.760527,3.423531
3840,14.992828,-17.040785,-0.48364928
3841,12.439387,-15.867106,-2.3234308
3842,5.5761743,-9.820743,-4.5894337
3843,2.926721,-7.7440715,-4.805087
3844,-2.6907291,-3.2644083,-7.4569325
