,ax,ay,az
501,-4.0920258,-11.900105,-3.882654
502,-1.7898313,-9.437592,-4.6301117
503,0.55752766,-7.207481,-2.6826532
504,1.396212,-6.6011996,-1.8681962
505,3.9400816,-5.494519,-1.7410775
506,4.9845486,-4.900501,-2.5004997
507,5.3653064,-4.256233,-2.9557343
508,4.8649077,-3.5231323,-2.4239295
509,4.2945185,-2.4020948,-2.7424738
510,3.4680972,-1.462912,-3.4492538
511,2.1843479,0.19710876,-4.8936214
512,1.1709876,1.5888343,-4.4985065
513,-0.48424748,2.3721845,-4.340281
514,-1.9002002,3.0765717,-4.924728
515,-2.7912276,3.4094732,-5.423033
516,-4.1662035,3.6011982,-4.699803
517,-3.0499516,3.5605202,-2.359323
518,-1.076172,2.7532415,-2.2034905
519,-0.4459623,0.043968115,-2.9413772
520,-1.2604194,-4.313661,2.3623142
521,-2.3048863,-9.660423,14.335101
522,-3.382853,-16.267006,25.387848
523,-3.8285162,-23.987747,23.265415
524,-5.9964137,-31.287054,19.57628
525,-4.5281177,-31.492836,19.10669
526,1.055833,-21.822243,12.868899
527,1.4560326,-12.513266,7.704291
528,0.27008986,-6.6828547,6.448956
529,-0.7645068,-0.20757736,2.376671
530,-3.679862,0.76719874,-2.7927232
531,-11.117951,-4.2634115,-8.441579
532,-13.405788,-11.301301,-8.1347
533,-11.886945,-16.1354,3.653541
534,-7.3953176,-23.218754,12.531212
535,-3.9649072,-26.131718,13.997115
536,10.082158,-21.482164,-9.926624
537,9.404391,-13.083356,-15.263816
538,3.5162528,-8.62792,-1.2454642
539,0.89312106,-6.9415784,9.119945
540,1.5469599,-6.1196437,1.0591232
541,2.926721,-5.621638,-11.560325
542,2.7831519,-5.130511,-13.469498
543,0.4426722,-5.2740803,-9.356535
544,-1.0184451,-6.426523,-4.6779685
545,-1.8858434,-7.7967134,-2.1843479
546,-0.89401835,-9.495019,-0.799801
547,-0.050847482,-11.514562,1.6411772
548,1.2882359,-12.702599,1.8281165
549,2.6823542,-13.117155,1.3393825
550,4.205984,-13.143476,1.2987045
551,4.6301117,-12.364911,0.90089774
552,3.6287155,-9.08794,0.4746762
553,0.83090764,-7.413264,0.3260221
554,0.18394823,-7.0875406,0.5512465
555,-0.48424748,-4.7662034,1.0950154
556,-1.1072787,-4.1721854,-0.023629123
557,-1.3588241,-4.1817565,-1.274178
558,-1.971985,-4.3519464,-5.22413
559,-2.853441,-5.29083,-7.1072817
560,-3.3349965,-7.0540414,-4.8122654
561,-3.4573295,-9.5404825,0.09840483
562,-3.8141594,-12.01496,3.054438
563,-3.7208393,-14.535201,6.233303
564,-0.71425754,-12.946965,10.588539
565,2.4332016,-10.402797,11.268699
566,4.955835,-10.728819,2.9036903
567,7.85444,-12.520445,-4.764409
568,7.7847495,-13.811671,-2.606083
569,3.350849,-13.902898,5.390132
570,-0.40528435,-13.260724,8.252846
571,1.9830518,-12.386446,4.721936
572,6.218348,-11.430513,-0.006879365
573,9.075976,-11.351551,-2.0718853
574,10.848759,-12.503695,-1.3316058
575,9.758828,-13.907683,3.272484
576,6.3595243,-15.297016,5.8453665
577,2.8860433,-16.719849,4.63071
578,1.9639091,-17.306688,4.063013
579,2.7903304,-16.683956,5.5986066
580,5.439783,-15.117255,4.6788654
581,7.0878396,-13.536198,0.1274178
582,5.6793647,-12.798311,-3.7749767
583,2.1795623,-13.040285,-4.912764
584,-0.005383851,-14.671592,-3.880261
585,-2.1035903,-17.177475,-2.876771
586,-3.804588,-19.431515,-2.9222345
587,-5.0718865,-21.07957,-3.1618161
588,-6.59761,-22.021147,-1.1207383
589,-5.948557,-19.469799,1.1907284
590,-5.1843495,-18.046967,1.8951155
591,-4.4488554,-16.66242,1.2221341
592,-3.9891346,-15.70888,0.46031925
593,-3.071487,-14.32194,-0.035593238
594,-2.4439692,-12.844073,-1.1398809
595,-2.134996,-11.48824,-3.9403806
596,-0.42203408,-9.830314,-3.923631
597,0.9816555,-8.136793,-2.0670996
598,1.1853445,-7.1952176,-1.559223
599,3.8467615,-6.1124654,-2.088635
600,4.634897,-5.5447683,-3.0924242
601,4.723432,-5.0802617,-3.5593238
602,4.2370906,-4.054937,-3.8730826
603,3.525824,-2.9769704,-3.9930227
604,2.7305098,-2.0521445,-4.000201
605,1.9734805,-0.7178468,-3.85394
606,1.2236297,0.2330011,-4.9606204
607,-0.32153556,1.6896319,-4.4985065
608,-1.4377873,2.1637099,-3.734299
609,-2.6596224,2.896811,-3.8778682
610,-3.301497,3.1962128,-3.5784662
611,-4.1255255,3.2515469,-2.5339992
612,-4.2981076,3.0023942,-0.43579283
613,-2.4678974,1.5768701,1.1428719
614,-0.25932217,-0.85214394,0.112761766
615,0.0017946169,-4.7709894,3.7995033
616,-1.5263218,-10.055538,14.75893
617,-2.324029,-14.825032,23.04976
618,-2.1158533,-23.801107,21.981365
619,-5.0309095,-30.6712,21.001804
620,-3.0092735,-29.24119,19.662722
621,1.0486546,-20.401804,11.599208
622,0.28923243,-10.997114,8.832506
623,-3.560221,-5.9377894,11.374283
624,-4.6788654,-6.2347984,8.085049
625,-7.970193,-8.881859,-3.377469
626,-9.742975,-14.597415,-7.945667
627,-6.7989063,-16.480267,4.5206404
628,-2.3889344,-17.814564,5.787939
629,1.7482561,-16.087545,3.667898
630,4.8505507,-11.38505,-12.863516
631,3.2862427,-7.286444,-14.935699
632,-2.1661026,-6.469594,-0.7112665
633,-3.7878382,-7.5068827,8.430213
634,-2.0629122,-8.373981,0.6158527
635,1.8583258,-7.870891,-12.583256
636,2.457429,-8.258827,-11.042876
637,2.0045872,-9.619745,-7.3322067
638,2.457429,-10.697712,-3.4085758
639,2.8716862,-11.425728,0.9176475
640,3.9185462,-11.964711,3.828217
641,4.222734,-12.396018,3.9984066
642,4.0094733,-12.295519,2.4340987
643,4.0624146,-11.674881,1.1715858
644,4.2394834,-10.819746,0.4866403
645,3.1136606,-8.989535,-0.13369897
646,2.4598217,-8.017152,-0.030807592
647,0.5721837,-6.6035924,-0.37567315
648,-0.73818576,-5.573482,0.34037903
649,-0.9586246,-4.9196434,0.33080772
650,-0.28085756,-4.3208394,-0.40917268
651,-0.2425724,-4.1793637,-2.0312073
652,-0.56590253,-4.692026,-2.5004997
653,-1.2532408,-5.2573304,-3.3990045
654,-2.1083758,-5.8971114,-3.5760734
655,-3.2249267,-7.1545396,-0.4860421
656,-4.2598224,-9.504591,3.2581272
657,-5.500501,-12.285948,3.409174
658,-6.3388863,-14.913567,2.4029922
659,-3.641577,-15.1244335,6.439385
660,1.218844,-12.398411,11.489138
661,4.3737807,-10.625628,5.5627146
662,6.960721,-11.842677,-3.9738803
663,8.85823,-13.536198,-4.5822554
664,5.9955163,-14.183157,3.3589249
665,3.1112676,-13.579268,6.8635125
666,4.1461635,-12.73849,6.5641108
667,7.0758758,-11.833106,4.484748
668,9.236594,-11.382657,-1.1590235
669,9.234201,-11.646167,-4.148556
670,9.399606,-13.009178,-0.15792629
671,7.0232334,-14.743676,4.944768
672,2.8908288,-16.966608,5.919544
673,0.85244304,-16.861324,5.620142
674,0.47856453,-15.641882,7.77129
675,2.4454648,-14.1879425,5.624928
676,5.56421,-13.126726,1.1380863
677,7.0806613,-12.261721,-3.4899318
678,5.236094,-11.95514,-4.814658
679,2.3973093,-12.937394,-3.7271204
680,-1.7012969,-17.194225,-2.8863423
681,-3.1265218,-20.164616,-4.182355
682,-4.6357946,-21.827028,-4.6301117
683,-6.2790656,-22.519453,-1.2020943
684,-5.2609196,-20.12633,1.9381863
685,-4.813163,-18.550058,2.7358935
686,-4.7339005,-17.024036,1.8903298
687,-4.2717867,-16.161722,0.4316054
688,-4.10399,-15.035899,-0.5602196
689,-4.154239,-13.610375,-1.7075781
690,-3.9577286,-11.727523,-3.7893338
691,-2.0054846,-9.140582,-4.3857446
692,0.15284155,-6.8479595,-3.3750763
693,0.7085746,-5.8417773,-2.2154546
694,2.8381867,-5.2166524,-1.9830518
695,4.1030927,-4.6226344,-1.9351953
696,4.5966125,-3.716951,-1.9950159
697,4.7306104,-3.0176485,-1.9328024
698,4.2538404,-2.2342982,-2.5148566
699,4.0672,-1.3336995,-3.2192438
700,3.2333016,-0.48065826,-3.5593238
701,1.4823537,0.32183465,-4.1703906
702,-0.3047858,1.172184,-4.246961
703,-2.1254246,1.9674984,-4.2014976
704,-3.0930223,2.597409,-4.77398
705,-3.2033913,2.8298118,-4.380959
706,-2.6691937,2.4586253,-3.353242
707,-1.931307,2.0297117,-2.7305098
708,-1.1766706,0.6762715,-3.8874395
709,-1.3875381,-2.6054847,-1.0824531
710,-2.312065,-7.430013,8.743972
711,-2.065305,-13.723137,25.56043
712,-2.1254246,-22.054646,27.914968
713,-3.0188448,-30.422049,22.570599
714,-2.9036903,-31.830822,21.540787
715,1.8990039,-24.828526,14.679967
716,3.0466614,-15.529419,7.581958
717,1.6716857,-9.341879,5.471488
718,-0.7262217,-1.5753746,3.0448668
719,-2.3312075,-0.36580276,-1.2574283
720,-11.094023,-5.8636117,-5.906982
721,-13.084553,-12.6116705,-5.298607
722,-11.027024,-16.710278,2.92044
723,-7.036095,-23.884857,10.8759775
724,2.114657,-23.621347,4.985446
725,9.758828,-15.888641,-12.561721
726,5.3772707,-9.200403,-12.120843
727,2.0021944,-6.402595,-3.51386
728,-0.85812604,-5.918647,7.835896
729,-0.05802595,-5.8827543,0.005084748
730,2.0021944,-4.8095737,-15.649359
731,0.552742,-5.42752,-15.821941
732,-0.4651049,-6.24437,-10.506286
733,-0.71425754,-8.330911,-5.7343993
734,-0.07956135,-10.537093,-2.9509485
735,1.3217354,-13.145868,1.6387844
736,2.7113671,-15.114862,5.3733826
737,4.0791645,-15.162719,5.0715876
738,5.415855,-13.625031,2.7191439
739,5.6001024,-12.352947,1.346561
740,4.2921257,-10.49163,-0.37567315
741,2.0739791,-7.739286,-1.911267
742,-0.46271208,-5.98086,-1.178166
743,-1.2675978,-4.395017,0.599103
744,-1.4234303,-3.7097723,0.7932207
745,-2.2474587,-3.990331,0.6687939
746,-2.6377878,-4.289733,-0.9915259
747,-2.9781668,-5.185546,-2.5893333
748,-2.7936203,-5.9497533,-2.728117
749,-3.100201,-7.382157,-1.2311072
750,-3.4764721,-9.475877,0.8171489
751,-3.7061832,-11.92164,2.01027
752,-3.6726837,-13.785351,2.7047868
753,-1.713261,-13.732708,4.5445685
754,1.7147565,-11.873784,7.4718876
755,4.1461635,-10.901102,5.459524
756,6.6613193,-11.389835,0.46271208
757,8.802896,-12.501302,-1.6860427
758,7.655537,-12.903894,1.9381863
759,3.8036907,-12.666706,6.005686
760,0.25094727,-12.654741,6.425028
761,1.0941181,-12.312269,4.0845485
762,5.073083,-11.809178,-0.27996024
763,7.207481,-11.897713,-2.306681
764,9.02812,-13.059428,0.19441684
765,8.997013,-13.962718,2.716751
766,5.631209,-14.829818,5.9913287
767,1.0319048,-15.169897,5.955436
768,-0.86291164,-14.094323,3.5623147
769,-0.2976073,-13.30858,5.378168
770,1.5732809,-12.362518,6.096912
771,4.4407797,-12.331411,1.1356934
772,7.5789666,-12.046367,-4.194319
773,9.579067,-12.113365,-6.0194445
774,8.508279,-14.415261,-5.118846
775,4.644469,-18.391832,-3.5330026
776,-0.5371887,-21.829422,-2.7424738
777,-4.8155556,-24.069403,-3.2766714
778,-7.266105,-23.712275,-2.0383859
779,-7.6827555,-21.292831,-0.35653058
780,-7.131808,-18.37269,1.0208379
781,-6.6167526,-16.609777,0.9634102
782,-6.125626,-16.097116,0.9200403
783,-5.881558,-14.9351015,0.70229346
784,-6.152246,-13.540983,0.048155557
785,-5.6850476,-11.512169,-1.8586249
786,-3.735196,-9.454341,-3.6553357
787,-0.9299107,-6.936793,-4.263711
788,-0.47946185,-5.9353967,-2.7520452
789,1.4847465,-5.360521,-2.699403
790,4.1054854,-4.6465626,-2.8022945
791,5.712864,-4.112365,-2.5435705
792,6.3044896,-3.431906,-2.376073
793,6.230312,-2.4571297,-2.836093
794,6.2231336,-1.8029919,-2.6347969
795,4.4814577,-1.1730813,-3.4779677
796,2.1433709,0.005383851,-4.3331027
797,0.6200402,0.994816,-4.747659
798,-1.68694,2.067997,-5.0566325
799,-3.1145577,2.6907291,-5.3440704
800,-3.6320057,3.287439,-5.8686967
801,-3.9816568,3.44058,-4.625326
802,-2.7816563,2.746063,-1.4823537
803,-1.9217356,1.131506,-2.2561326
804,-1.8233309,-2.2677977,-1.2574283
805,-1.049851,-5.8636117,5.1026945
806,-1.2556337,-11.660523,17.885153
807,-3.9098723,-19.44348,24.927828
808,-5.0141597,-28.6711,21.703499
809,-4.075276,-33.375687,20.076979
810,-0.081954174,-29.071001,21.775284
811,4.1892343,-19.44348,13.872688
812,2.1867409,-11.389835,6.604789
813,-0.92512506,-4.543671,4.8942194
814,-2.786442,-1.9277177,0.73340017
815,-9.007482,-6.706783,-1.8801605
816,-13.417753,-13.612768,0.40289152
817,-11.49183,-17.455341,1.6435701
818,-5.8501525,-19.738094,6.992725
819,-0.9705887,-19.290339,6.1639113
820,4.445565,-14.429917,-5.8543396
821,4.857729,-8.007581,-12.595221
822,2.018944,-6.1821566,-6.6711893
823,-1.1670992,-5.482555,1.2460624
824,-1.1072787,-5.6001024,2.714358
825,1.2212368,-6.553343,-6.278168
826,2.9386854,-6.826424,-15.000306
827,0.81625164,-7.6743803,-11.941381
828,-0.14416756,-8.570493,-6.6568327
829,0.53359944,-9.506984,-3.624229
830,2.5196424,-10.819746,-1.9351953
831,3.6335013,-12.082259,0.5057829
832,4.3187456,-13.184154,2.295315
833,5.1738806,-13.406985,3.5958142
834,5.8707905,-12.726526,3.9218364
835,4.2035913,-11.190932,2.4532413
836,2.1242282,-9.097511,-0.040378883
837,0.09302098,-6.6394844,-0.81655073
838,-2.295315,-5.3219366,-0.40917268
839,-2.9733813,-4.6202416,1.2029916
840,-3.8572302,-4.519444,1.8305093
841,-3.8165522,-4.725526,0.6134599
842,-3.5793636,-5.061119,-1.0513464
843,-2.96381,-5.425127,-3.3436706
844,-2.7649066,-6.1845493,-3.9571304
845,-2.7912276,-7.683952,-3.0996027
846,-2.812763,-9.116654,-1.3603196
847,-2.376671,-11.809178,0.232702
848,-1.943271,-15.134005,3.5503507
849,-0.11066805,-14.995221,9.905687
850,2.6201408,-12.38166,14.291732
851,5.089833,-10.192228,6.9735823
852,6.529714,-10.067502,-4.5320063
853,6.6684976,-11.480763,-7.4904323
854,5.1332026,-12.719348,1.1787642
855,2.6751757,-12.633206,9.242277
856,4.5798626,-12.587743,7.9558363
857,7.6770725,-11.885748,1.8041883
858,9.552746,-12.072687,-1.314856
859,11.014163,-12.590136,-2.021636
860,9.859326,-13.550554,1.5622141
861,5.5259247,-15.299409,7.328019
862,0.9553344,-17.551056,8.322237
863,-0.17766708,-17.177475,5.2055855
864,0.5312066,-15.383158,7.5939217
865,2.629712,-13.8356,3.464209
866,5.7320065,-13.1027975,-1.0561321
867,6.9945197,-12.386446,-5.7343993
868,5.1882377,-12.5805645,-7.272386
869,0.933799,-15.74238,-3.3173494
870,-3.004488,-20.164616,-2.5941188
871,-3.9744785,-22.639093,-5.00399
872,-5.95095,-23.923141,-5.68415
873,-6.113662,-21.781565,-2.495714
874,-5.1939206,-18.770496,0.8865408
875,-4.6286163,-17.591732,2.8366911
876,-4.8251266,-17.079071,2.3958137
877,-5.1556354,-16.6026,0.71665037
878,-4.7267222,-15.031114,-1.6788642
879,-5.2250276,-13.260724,-3.7558343
880,-3.952943,-10.589736,-4.436293
881,-1.5693926,-7.719844,-3.3966117
882,-0.02213361,-6.431309,-2.8528428
883,1.6334006,-5.4179487,-2.4095724
884,3.3412778,-4.282554,-2.079064
885,5.0180483,-3.8201413,-2.891128
886,5.1882377,-3.3816566,-2.428715
887,4.843073,-2.6799614,-1.302892
888,5.195416,-1.7838492,-2.3832514
889,4.4336014,-1.1491531,-3.525824
890,2.3638096,-0.47347978,-4.3666024
891,0.485743,0.6451648,-4.936692
892,-0.96819586,1.3636098,-6.0484576
893,-3.452544,2.693122,-5.1403813
894,-4.3890347,2.9183464,-5.159524
895,-3.8955152,2.8537402,-4.8290153
896,-3.1695926,2.4634109,-3.7677984
897,-3.0116663,2.2788644,-3.74387
898,-0.9059825,0.88235337,-5.008776
899,-0.36699918,-2.4020948,0.2853441
900,-1.0713863,-7.748857,11.752647
901,-2.7314072,-14.856138,29.757143
902,-2.6979074,-23.264517,26.379673
903,-5.5794644,-32.034214,20.338095
904,-1.9887347,-32.865417,22.592134
905,3.2886357,-24.378376,14.485849
906,1.585245,-15.107684,6.7005014
907,-0.8389834,-7.693523,5.0644093
908,-3.152843,-1.9683957,4.031906
909,-5.689833,-0.35862428,1.3345969
910,-11.987443,-5.408377,-0.6678966
911,-14.75205,-13.689637,0.70229346
912,-11.499008,-18.255442,1.8879371
913,-5.9724855,-22.071396,4.8391848
914,1.1255239,-21.527628,4.369593
915,6.2374907,-17.175083,-3.3726835
916,7.425527,-9.423235,-15.474683
917,4.685147,-7.799106,-12.609577
918,-1.4234303,-6.2180486,2.9706893
919,-2.02702,-6.7115684,7.0597243
920,1.7530417,-6.7354965,-8.1275215
921,3.405884,-7.099505,-17.053349
922,2.0045872,-8.283054,-12.267104
923,0.18873389,-9.689137,-7.1359954
924,0.6750751,-10.608878,-3.7941194
925,1.721935,-11.825928,-0.4549354
926,2.819044,-12.872787,3.2796626
927,4.205984,-12.954144,6.096912
928,4.9031925,-11.983854,5.035695
929,3.5880375,-10.431809,2.5779674
930,2.2872393,-8.996714,0.66400826
931,0.46660042,-6.385546,-0.7830512
932,-1.1766706,-4.991428,-0.6873383
933,-3.1576285,-4.234399,1.6076777
934,-3.0140593,-3.5590246,2.6928227
935,-3.2368908,-4.3328037,3.1959138
936,-2.9255247,-4.70399,2.2112672
937,-1.7898313,-4.9698925,0.61106706
938,0.5697909,-5.769993,-2.9629126
939,1.410569,-6.6514487,-4.0217366
940,1.1135598,-7.9331045,-3.8180475
941,0.5769694,-9.578768,-2.455036
942,0.20787647,-11.859427,-0.32063824
943,-0.6041877,-14.036896,3.1552358
944,-0.8772686,-14.923138,8.983554
945,0.08105687,-14.060824,12.777972
946,1.8774685,-11.837892,7.562815
947,2.5124638,-11.87857,-1.3435699
948,1.5565311,-13.0259285,-2.8935208
949,-0.48424748,-13.699209,1.5981064
950,-1.1886346,-14.008182,4.2690945
951,2.5004997,-13.934005,4.618746
952,5.8468623,-13.837993,3.6894333
953,10.582856,-13.346866,1.1093724
954,13.306487,-13.857135,-0.27517462
955,11.720643,-14.238192,0.21355942
956,6.7645097,-15.941283,4.810471
957,1.8870398,-17.376379,6.841977
958,0.17676978,-16.808382,7.8741813
959,0.66071814,-15.203397,8.628818
960,3.025126,-13.054642,6.326922
961,6.326025,-11.880962,0.28295127
962,7.4470625,-10.651949,-5.4445686
963,4.546064,-10.608878,-8.573184
964,0.72053874,-12.87518,-4.4985065
965,-0.50099725,-16.50898,-2.2971098
966,-1.2029916,-19.841286,-4.5535417
967,-3.0212376,-22.72045,-5.7487564
968,-4.56401,-22.914566,-3.3870404
969,-4.578367,-20.090439,1.8161523
970,-4.837091,-18.293728,4.1997027
971,-4.930411,-16.861324,1.2747762
972,-5.172385,-16.051653,-2.0718853
973,-4.6357946,-15.129219,-3.2934213
974,-5.634798,-13.89572,-5.317749
975,-3.6894333,-10.982757,-3.8730826
976,-1.5191432,-8.314161,-1.5927225
977,-0.11066805,-6.605985,-1.8227327
978,1.1303096,-5.5830536,-1.2550355
979,2.819044,-4.8789654,-1.3794622
980,3.2479577,-4.514658,-1.5424733
981,2.6464617,-3.9927237,-2.1077776
982,2.3566313,-3.3936207,-2.3808584
983,1.9806589,-2.6485555,-3.1307094
984,1.9734805,-1.9277177,-4.3618164
985,1.0342976,-1.244866,-4.9175496
986,-0.8892327,0.10378868,-5.2217374
987,-2.2378874,1.2080764,-4.896014
988,-3.3589249,2.1879373,-4.1222353
989,-4.6669016,2.856133,-3.3460634
990,-5.5220366,3.0430722,-2.3904297
991,-4.942375,2.7149563,-0.622433
992,-4.0704904,2.544767,-1.5951154
993,-2.2474587,1.4404793,-1.43689
994,-0.94426763,-1.8990039,2.184946
995,-0.9083753,-7.516454,11.458032
996,-1.5191432,-15.107684,28.037302
997,0.41156548,-23.494228,26.743681
998,-0.6664011,-29.461628,24.55664
999,0.25812575,-32.68596,25.855047
1000,5.446962,-24.078974,11.414961
1001,4.258626,-13.888242,5.41406
1002,1.4823537,-6.1268225,4.983053
1003,-2.6018956,-1.5155541,-0.16271193
1004,-7.4216385,-0.7178468,-4.383352
1005,-11.980265,-5.6383877,-9.2437725
1006,-12.459428,-10.489237,-4.726124
1007,-11.997015,-15.965212,9.254242
1008,-7.4096746,-22.428226,13.894224
1009,0.7372885,-23.091934,4.7482576
1010,7.463812,-16.935501,-18.145672
1011,5.348557,-12.532409,-14.739189
1012,1.7865412,-9.780065,-1.8514465
1013,1.0654043,-9.037392,5.4116673
1014,1.8487546,-8.1942215,-5.1332026
1015,1.8966111,-7.7703924,-11.749657
1016,0.71336025,-8.505588,-9.818948
1017,0.35413775,-8.932108,-6.5536423
1018,0.64636123,-9.662816,-4.1126637
1019,1.3097713,-10.422238,-1.5951154
1020,1.6501503,-10.83171,1.4111671
1021,2.021337,-11.021042,4.582854
1022,2.8310082,-10.287941,4.3935213
1023,2.6368906,-9.128618,2.3982065
1024,1.5349957,-8.302197,0.8817552
1025,0.2653042,-7.3486576,0.63978094
1026,-1.5693926,-6.617949,0.7932207
1027,-2.542075,-5.532804,2.5202405
1028,-2.3072793,-4.744668,3.054438
1029,-2.1131616,-4.787739,2.3264217
1030,-1.0112667,-4.7952166,-0.13369897
1031,0.5673981,-5.0081778,-3.05384
1032,1.5972091,-5.2692947,-4.9776692
1033,1.1709876,-6.007181,-3.7510486
1034,1.4416757,-6.9894347,-1.166202
1035,1.096511,-8.395517,0.12981063
1036,0.4331009,-10.434202,2.393421
1037,-0.36699918,-12.575779,5.871688
1038,0.059521463,-13.785351,8.188239
1039,1.4273187,-13.576876,7.131808
1040,2.728117,-13.327723,1.7802601
1041,3.187838,-13.17219,-2.3545375
1042,2.672783,-12.714562,-1.4057833
1043,0.907478,-12.822538,1.4928222
1044,-3.0906296,-13.162619,6.6478596
1045,-3.205784,-13.054642,7.143772
1046,2.0141585,-11.957533,1.3010973
1047,9.397213,-12.12533,-4.1871405
1048,12.470494,-13.200904,-3.0586255
1049,12.690933,-14.841782,0.21355942
1050,8.045866,-15.751951,2.7670002
1051,1.9375881,-16.410875,4.863113
1052,-2.1732812,-15.783358,3.9433718
1053,-1.9073788,-15.442978,4.87747
1054,1.0606186,-15.057435,7.335198
1055,3.4465618,-14.95903,6.652645
1056,5.4996037,-14.103895,4.7745786
1057,7.2290163,-12.748062,-1.5999011
1058,6.498607,-12.118151,-3.2144582
1059,3.7052858,-12.158829,-5.839983
1060,0.26291138,-14.417654,-4.45065
1061,-3.1097722,-17.376379,-2.836093
1062,-4.724329,-19.256838,-4.503292
1063,-5.526822,-20.059332,-3.039483
1064,-4.9160542,-18.562023,0.3164508
1065,-4.2188454,-16.868502,2.4508486
1066,-4.2044883,-16.113867,2.4293132
1067,-4.267001,-15.7184515,1.3920245
1068,-4.453641,-15.531812,0.3786642
1069,-6.3891354,-14.666806,-2.141277
1070,-5.783153,-12.781561,-5.200202
1071,-2.5205395,-9.286545,-4.1222353
1072,-0.5778667,-7.3869424,-2.8432715
1073,0.46181476,-6.517451,-1.3651053
1074,2.3015962,-5.710172,-1.1949158
1075,4.802395,-4.843073,-2.5172493
1076,5.8420763,-4.258626,-2.2465613
1077,5.6120663,-3.6667016,-2.2417758
1078,4.4671006,-3.0320053,-1.9686948
1079,4.1318064,-2.3204398,-2.0599213
1080,3.336492,-1.3600205,-3.0466614
1081,1.2930216,-0.15493527,-4.5415773
1082,-0.4244269,0.7719844,-3.7773697
1083,-2.204388,1.660918,-3.4971104
1084,-3.3589249,2.5591238,-3.717549
1085,-3.5673995,3.0550363,-3.772584
1086,-3.9242291,3.1770704,-3.135495
1087,-3.4980075,2.6548367,-2.6682963
1088,-3.0116663,1.9363917,-4.627719
1089,-1.7874385,-0.212363,-3.2647073
1090,-0.9825528,-2.8235307,0.6014958
1091,-1.2340983,-9.825528,13.731213
1092,-1.0328021,-17.277973,26.5376
1093,-2.3383858,-26.766712,24.942184
1094,-7.3522468,-37.048073,21.72982
1095,-0.6089734,-34.820354,21.504597
1096,3.4226336,-21.901207,11.819647
1097,-0.053240303,-11.964711,6.4465632
1098,-3.4573295,-4.59392,4.0031924
1099,-4.35075,1.1195419,-2.2154546
1100,-4.788935,2.5591238,-2.4215364
1101,-11.043774,-2.984149,0.6903293
1102,-10.969596,-9.792028,-1.00349
1103,-7.778767,-15.026328,-1.2406785
1104,-6.314958,-18.940388,3.9314077
1105,-2.9374888,-25.082464,6.326922
1106,1.8487546,-23.599812,6.5374904
1107,9.365807,-16.080366,-10.278668
1108,6.2494545,-9.703494,-10.192527
1109,2.2728825,-5.9353967,-1.57358
1110,-0.096311115,-4.560421,5.840581
1111,-0.1896312,-4.6058846,3.0400813
1112,1.6019948,-5.0512486,-8.343174
1113,2.5866413,-5.432306,-13.867305
1114,0.92662054,-6.450452,-10.580463
1115,-0.57547385,-8.160722,-6.460322
1116,-0.7477571,-9.509377,-4.4192443
1117,0.23898315,-11.682059,-1.1494522
1118,1.0654043,-12.582957,0.9945169
1119,2.998805,-13.234403,3.8739798
1120,4.7018967,-12.872787,5.3685966
1121,3.5234313,-11.825928,4.21406
1122,1.9184456,-9.808778,1.9094725
1123,0.80189466,-6.919744,0.3379862
1124,-0.57547385,-5.358128,1.0184451
1125,-1.2699906,-4.979464,1.265205
1126,-1.5693926,-4.603492,0.77647096
1127,-1.1431711,-4.2921257,-1.9064814
1128,-1.0328021,-4.4835515,-3.295814
1129,-1.0570294,-4.6298127,-4.874479
1130,-1.7874385,-5.6766725,-4.1030927
1131,-2.1828525,-7.219445,-1.8490537
1132,-2.2809582,-8.680562,-0.77347994
1133,-2.9542387,-11.873784,1.3968102
1134,-3.3732817,-14.020146,4.6908298
1135,-1.9959131,-14.578272,8.2049885
1136,0.61764735,-13.526627,10.066306
1137,3.7507496,-12.360126,6.4968123
1138,5.5522456,-12.3912325,-0.8356933
1139,5.8061843,-13.049856,-3.5712879
1140,4.17727,-13.272688,-0.4334
1141,1.2738789,-13.023536,5.517251
1142,0.6798607,-12.891931,7.9103727
1143,3.0753753,-12.527623,3.3059835
1144,7.049555,-12.024831,-3.4516466
1145,9.004191,-13.1027975,-2.5531418
1146,9.193523,-14.743676,1.3944174
1147,7.030412,-15.814464,4.470391
1148,2.3566313,-17.148762,6.6215386
1149,-0.39810586,-16.808382,4.518247
1150,-0.5563313,-16.607386,6.743572
1151,1.599602,-14.38894,8.973982
1152,3.662215,-12.884751,6.398707
1153,6.2087765,-11.447264,0.4651049
1154,6.0577297,-10.230514,-4.6803613
1155,4.6205406,-9.945468,-7.8687973
1156,3.3963127,-11.667703,-5.902196
1157,0.2748755,-16.710278,-1.9710877
1158,-2.0078773,-19.558634,-2.9892337
1159,-5.311169,-23.283659,-3.5712879
1160,-6.2958155,-23.137398,-0.6128617
1161,-5.9150577,-20.404198,2.134697
1162,-5.6467624,-18.760925,2.364707
1163,-5.4502516,-17.17269,1.1476575
1164,-5.2274203,-15.977176,-0.27038896
1165,-6.6888366,-14.834603,-1.4249259
1166,-6.6478596,-12.822538,-4.31396
1167,-4.147061,-10.022038,-3.4683964
1168,-1.6271194,-6.6011996,-2.6682963
1169,-0.22791636,-5.968896,-1.6884354
1170,1.5828521,-5.7245293,-1.2550355
1171,3.7100716,-4.8789654,-1.6788642
1172,5.159524,-4.3447676,-2.606083
1173,5.2289157,-4.026223,-2.4071796
1174,4.9845486,-2.9769704,-2.780759
1175,4.452744,-2.2917259,-2.7305098
1176,3.6885362,-1.6953149,-3.5880375
1177,2.3015962,-0.5479564,-4.4339004
1178,1.4464613,0.17796618,-5.00399
1179,-1.3082758,1.8427725,-4.2302113
1180,-3.3445678,2.4705894,-3.7031922
1181,-3.8093736,2.734099,-3.4253256
1182,-3.9601214,2.8369904,-3.121138
1183,-3.0810583,2.6596224,-1.2526426
1184,-2.623431,2.1951156,-3.1833515
1185,-1.3707882,0.36490545,-3.4253256
1186,-1.4641083,-3.3840494,2.053341
1187,-1.4234303,-8.6757765,12.746865
1188,-1.5000007,-15.751951,26.952156
1189,-2.1131616,-23.592632,25.114767
1190,-7.0432734,-31.763525,22.848465
1191,-1.849951,-31.047472,20.69014
1192,2.387738,-21.465414,11.795718
1193,0.86201435,-11.852249,7.5173516
1194,-2.324029,-4.924429,7.792825
1195,-5.0599227,-2.64377,1.9166509
1196,-8.243274,-5.211867,-2.4646072
1197,-12.083455,-11.660523,-1.302892
1198,-11.750554,-15.6873455,-2.2609184
1199,-9.903594,-19.065113,5.0069814
1200,-4.765007,-19.517956,6.0753765
1201,3.9017963,-13.914862,-4.9055853
1202,5.602495,-10.206585,-13.208381
1203,2.9626136,-7.4901333,-11.248959
1204,-0.5204389,-6.7378893,-2.8265216
1205,-1.3875381,-6.8862443,4.2762733
1206,0.5383851,-7.4853473,-2.5220351
1207,2.33031,-8.120044,-11.878869
1208,2.1050856,-9.032606,-11.002198
1209,1.7745771,-9.619745,-6.0341005
1210,1.9830518,-9.967004,-3.3607194
1211,3.0753753,-10.7431755,-0.6367899
1212,3.6813576,-11.595918,1.5000007
1213,3.7627137,-12.000604,2.757429
1214,3.9807596,-11.907284,3.2150564
1215,4.1700916,-11.0353985,3.1097722
1216,2.684747,-9.863813,1.8161523
1217,0.55034924,-8.395517,-0.13369897
1218,-0.36699918,-7.4252276,-1.0274183
1219,-2.6401806,-5.465805,0.6086743
1220,-3.545864,-4.8693943,2.4388845
1221,-3.8620157,-4.7374897,2.6593232
1222,-3.749553,-5.0177493,1.5933207
1223,-2.5468607,-5.2286167,-0.74476606
1224,-1.3181462,-5.662316,-3.2240293
1225,-0.48903313,-6.24437,-4.5296135
1226,-0.5802595,-6.960721,-3.9954157
1227,-0.47228336,-8.222935,-2.754438
1228,-0.55393845,-9.813564,-2.210669
1229,-0.9203394,-11.919248,0.10079765
1230,-1.1001002,-13.730315,3.9673
1231,-0.14895321,-14.664413,7.4766736
1232,1.9208384,-13.330116,9.759726
1233,3.336492,-12.134901,6.425028
1234,3.3987055,-12.079866,0.18005991
1235,1.8391833,-12.868002,-2.3928227
1236,0.3589234,-13.543376,2.6808586
1237,1.2810575,-13.469198,6.1232333
1238,3.5808592,-13.57209,5.3733826
1239,7.789834,-13.521841,1.9190438
1240,10.776974,-13.627424,-0.8668
1241,11.260623,-14.108681,-1.2526426
1242,8.412566,-14.446667,1.2197413
1243,3.0729825,-15.445371,5.4523454
1244,-0.7716853,-16.094723,5.8453665
1245,-0.8844471,-16.257435,6.4010997
1246,1.015155,-15.347265,7.301698
1247,3.4417763,-13.943576,4.4656053
1248,5.6817575,-12.503695,1.3752748
1249,5.899504,-11.217552,-2.7376883
1250,4.249055,-10.752747,-5.423033
1251,0.5383851,-12.307484,-5.308178
1252,-2.2737796,-15.769,-2.9413772
1253,-4.048955,-19.160826,-3.7223346
1254,-5.689833,-21.489342,-3.4444683
1255,-6.0370917,-21.640089,-1.029811
1256,-5.2848477,-19.592133,1.9334008
1257,-4.6022954,-17.4027,2.975475
1258,-4.753043,-16.79642,2.4149563
1259,-5.15085,-16.439589,0.9849456
1260,-4.92084,-15.344872,-0.33738798
1261,-4.9663033,-13.72553,-1.6501503
1262,-5.191528,-11.540883,-4.8122654
1263,-2.635395,-9.430413,-4.8122654
1264,0.73011,-6.9101725,-3.0996027
1265,2.1771696,-6.0574307,-1.2837493
1266,3.85394,-5.604888,-0.5769694
1267,4.599005,-5.2573304,-1.2502499
1268,5.171488,-4.9866424,-1.6334006
1269,4.529314,-4.5170507,-2.0045872
1270,3.6885362,-3.5494533,-2.766402
1271,2.6536403,-2.4188447,-3.324528
1272,2.0452652,-1.189831,-3.865904
1273,0.39481574,0.051146585,-4.4434714
1274,-1.0256236,1.3686945,-4.534399
1275,-1.9504496,2.231008,-3.7223346
1276,-2.9853454,3.0382864,-3.1953156
1277,-2.784049,3.2970104,-3.4444683
1278,-1.6510476,2.7412775,-2.821736
1279,-1.3010973,2.1302104,-2.716153
1280,-0.23748764,1.2750753,-4.4578285
1281,0.04516453,-1.0339985,-3.4037902
1282,-1.428216,-5.276473,3.3924243
1283,-2.3670998,-10.92503,18.450457
1284,-2.2785654,-18.43999,27.069405
1285,-4.5711884,-26.76432,23.435604
1286,-9.141779,-34.511383,23.811577
1287,-0.4339982,-30.196823,18.493528
1288,0.4426722,-19.405193,7.9558363
1289,-1.6366907,-9.490233,3.5671003
1290,-4.345964,-2.6895328,3.4163525
1291,-5.986842,-0.87367934,-2.62044
1292,-10.126126,-3.4537404,-1.9998015
1293,-15.408282,-10.683355,3.7061832
1294,-11.206486,-18.825533,4.1180477
1295,-5.215456,-22.119253,7.4072814
1296,3.4633117,-20.27947,5.3327045
1297,8.88455,-13.529019,-14.947664
1298,8.038688,-9.116654,-15.975381
1299,2.617748,-6.4241304,-8.175676
1300,-1.428216,-6.4241304,3.3613176
1301,-1.8257236,-7.003792,4.7985067
1302,0.63918275,-6.7426753,-7.6773715
1303,2.2824538,-7.453942,-13.021741
1304,1.1590235,-8.32134,-9.83809
1305,0.01375873,-9.08794,-4.8529434
1306,-0.06520442,-9.971789,-2.5148566
1307,1.3818551,-11.17179,-0.35174492
1308,2.2489543,-12.036796,1.2675978
1309,3.4010983,-12.982858,2.4532413
1310,3.6957145,-12.87518,2.6665018
1311,4.0815573,-12.000604,2.6473591
1312,2.8262227,-10.484451,2.0916262
1313,0.9098708,-8.819645,0.86979103
1314,-0.51086766,-6.33769,-0.10737792
1315,-1.7491534,-5.6838512,0.13220344
1316,-2.7481568,-5.0850472,1.2747762
1317,-3.5147574,-5.0273204,1.9046868
1318,-2.5253253,-4.981857,1.1380863
1319,-1.442573,-5.238188,-0.04995017
1320,-0.6855437,-5.29083,-2.8265216
1321,-0.6113662,-5.4442697,-4.388138
1322,-1.1886346,-6.24437,-4.4482574
1323,-1.4808581,-7.839784,-3.0586255
1324,-1.7300107,-10.18505,-1.7434704
1325,-2.2402802,-13.131512,0.11515459
1326,-2.3001008,-15.553348,5.1649075
1327,-1.1359925,-16.154543,10.128519
1328,1.5756737,-13.576876,14.874084
1329,4.0887356,-10.781461,7.3256264
1330,4.3905306,-11.512169,-3.4253256
1331,3.336492,-12.769597,-5.523831
1332,2.3039892,-12.767204,-1.5855441
1333,2.9796624,-12.479767,6.4609203
1334,4.642076,-12.685848,7.6803627
1335,7.3250284,-12.982858,3.1313076
1336,9.186345,-13.627424,-2.0288146
1337,10.1348,-13.873885,-3.8850467
1338,6.946364,-14.978472,1.495215
1339,2.1529422,-16.612171,8.69133
1340,-0.9634102,-18.015862,8.834899
1341,-0.47706902,-16.798811,7.534101
1342,1.7865412,-15.102899,8.993125
1343,3.7052858,-13.634603,6.908976
1344,6.4480586,-12.685848,1.7898313
1345,7.1835527,-11.100005,-6.2638116
1346,5.494818,-10.352547,-11.186745
1347,2.4236302,-11.603096,-7.6292157
1348,-0.6257231,-14.496916,-3.3101711
1349,-5.1341,-20.195723,-1.654936
1350,-6.748657,-23.341087,-2.5316064
1351,-7.0145597,-22.981565,-1.029811
1352,-6.2790656,-20.991037,0.77647096
1353,-5.4837513,-19.091434,1.8687944
1354,-4.8849473,-17.143976,1.1934203
1355,-3.8811584,-15.914963,-0.66071814
1356,-3.8117664,-14.813067,-1.029811
1357,-5.3736815,-13.330116,-3.6577284
1358,-3.342175,-11.123934,-4.7955155
1359,-0.10827523,-8.433803,-4.3618164
1360,1.9136599,-6.773782,-2.5387847
1361,2.5220351,-6.4145594,-1.4057833
1362,4.342674,-5.695815,-1.4874383
1363,5.3653064,-5.2980084,-1.6836498
1364,5.389534,-4.773382,-1.2382857
1365,4.65404,-3.757928,-1.4177474
1366,3.5688949,-2.5791638,-2.632404
1367,2.5124638,-1.4796617,-3.8973098
1368,1.7027924,-0.50458646,-4.634897
1369,-0.88683987,1.3085749,-6.4292154
1370,-2.4774687,2.544767,-5.6386867
1371,-3.2153554,3.6203406,-5.157131
1372,-4.235595,4.391727,-5.253143
1373,-4.319643,4.401298,-4.2182474
1374,-3.8117664,3.6897326,-3.1929228
1375,-2.4487548,2.4442682,-2.9102705
1376,-0.695115,-0.34666017,-2.7927232
1377,-1.4641083,-3.441477,0.9825528
1378,-3.5099716,-9.195618,11.438889
1379,-5.0766726,-16.439589,25.95794
1380,-4.417749,-25.152155,26.571098
1381,-4.5134616,-33.404404,20.273489
1382,-1.0328021,-31.80181,20.984755
1383,3.9113677,-23.170898,14.715859
1384,2.8716862,-14.405689,7.752147
1385,0.45942193,-7.1377897,4.5062833
1386,-3.2009985,-1.7670995,5.58425
1387,-5.246563,-1.50359,0.5249255
1388,-9.136993,-5.1664033,-2.4717858
1389,-11.391032,-12.182757,0.9634102
1390,-6.159425,-18.744177,0.4244269
1391,-3.071487,-20.725134,-2.8142586
1392,-0.98973125,-19.66631,0.69272214
1393,3.185445,-13.188939,-9.195916
1394,1.8391833,-10.357333,-7.559824
1395,-2.1541386,-8.362018,1.8711873
1396,-2.5109682,-7.262516,4.0773697
1397,0.38524446,-6.515058,-3.8467615
1398,2.7520452,-6.483951,-14.200206
1399,1.9926231,-7.125826,-14.303098
1400,0.9385847,-7.8254275,-9.083454
1401,1.2116655,-8.496016,-4.4817567
1402,2.2226331,-9.334401,-1.3483555
1403,3.4130623,-10.644771,0.8003992
1404,4.2394834,-11.794821,2.9012976
1405,4.2275195,-12.604492,3.1671999
1406,4.642076,-12.685848,3.3661032
1407,3.6478581,-11.912069,2.7813573
1408,2.3327029,-9.75135,0.7190432
1409,0.46660042,-7.133004,-0.8644072
1410,-1.7228323,-5.808278,-0.26081768
1411,-2.446362,-4.981857,1.2699906
1412,-3.6080775,-4.660919,2.5875385
1413,-3.9218364,-4.8622155,1.9381863
1414,-3.4043884,-5.07069,0.11515459
1415,-2.1302104,-5.1257253,-3.4253256
1416,-1.238884,-5.662316,-4.9103713
1417,-1.3396816,-7.01097,-4.33071
1418,-1.5071791,-7.952247,-2.970091
1419,-1.931307,-9.931111,-1.0082756
1420,-2.446362,-12.343375,0.97537434
1421,-2.4798615,-13.92204,3.2102706
1422,-0.1369891,-15.162719,7.728219
1423,2.7759733,-13.375878,12.047264
1424,5.061119,-11.219945,7.615457
1425,5.22413,-11.200503,-0.81894356
1426,3.7292142,-12.266506,-2.7592237
1427,0.16480567,-12.697812,0.939482
1428,-1.9073788,-12.822538,5.6823554
1429,-0.24496523,-12.9685,7.43121
1430,4.127021,-12.537194,2.9874392
1431,8.306983,-12.166008,-1.5831513
1432,10.264312,-12.767204,-2.8863423
1433,10.7889385,-14.26212,-0.785444
1434,6.7381887,-15.454943,4.0295134
1435,1.7482561,-16.216757,5.986543
1436,-0.695115,-16.12583,5.3997035
1437,-0.050847482,-15.692131,7.2083783
1438,1.8248264,-14.673985,6.0394845
1439,4.553242,-13.574483,1.5119648
1440,6.1151576,-12.082259,-1.6381862
1441,4.845765,-11.514562,-4.453043
1442,2.3709881,-12.621243,-4.726124
1443,-0.1896312,-14.810675,-3.4779677
1444,-2.8486555,-18.300905,-3.5353954
1445,-2.8486555,-18.300905,-3.5353954
1446,-6.518647,-21.858135,-3.2072797
1447,-5.7400823,-19.63999,0.4004987
1448,-5.1843495,-18.490238,1.995614
1449,-4.417749,-16.578672,3.248556
1450,-4.6286163,-15.950855,1.7177476
1451,-4.1111684,-15.105291,-0.40677986
1452,-4.3986063,-13.8092785,-1.559223
1453,-5.5651073,-12.072687,-4.124628
1454,-3.138486,-10.043574,-4.5726843
1455,-0.328714,-7.722237,-3.5186458
1456,1.1207383,-6.450452,-1.8442681
1457,2.0237298,-5.662316,-0.41156548
1458,3.8276188,-4.9172506,-0.8883354
1459,4.208377,-4.7279186,-1.4874383
1460,4.256233,-4.5340996,-1.4321043
1461,3.3436706,-3.8368912,-1.9351953
1462,2.8525436,-2.751746,-3.7223346
1463,2.5555346,-2.2151556,-4.0648074
1464,1.0992029,-0.7369894,-4.618148
1465,0.1265205,0.060717873,-4.7955155
1466,-0.8389834,0.9661021,-5.971588
1467,-2.02702,2.1397817,-4.1871405
1468,-2.9446673,2.5328028,-2.905485
1469,-4.0944185,2.4296124,-2.4478576
1470,-3.4740794,2.161317,-1.2287145
1471,-2.865405,1.6031911,-0.907478
1472,-2.2235305,0.602094,-2.347359
1473,-1.3396816,-1.5538392,-1.4033905
1474,-1.8714864,-5.846563,4.741079
1475,-2.0294127,-11.92164,18.124735
1476,-1.5000007,-19.29991,24.951756
1477,-1.4210376,-23.458336,24.348167
1478,-3.9987056,-33.778282,27.016762
1479,1.9088743,-29.063822,17.85644
1480,1.2523435,-21.640089,8.679067
1481,-2.175674,-10.33819,2.9706893
1482,-6.916155,-6.263512,1.3992031
1483,-10.054341,-6.237191,-1.0561321
1484,-14.488541,-12.927822,5.8334026
1485,-14.811872,-19.340588,11.918052
1486,-3.4307094,-22.200907,2.5178475
1487,0.9936196,-18.31287,3.2078779
1488,5.997909,-13.002,-5.873482
1489,6.51775,-5.1400824,-20.200808
1490,1.4464613,-3.185445,-10.027123
1491,-2.8510482,-3.4633117,1.3752748
1492,-2.865405,-4.4572306,3.8401814
1493,-0.8533404,-5.7006006,-5.686543
1494,0.9720842,-7.6337023,-13.088739
1495,0.3900301,-9.81835,-11.375778
1496,0.20309082,-11.202896,-6.5608206
1497,1.3121641,-12.094223,-1.6094723
1498,2.821437,-12.817453,3.083451
1499,4.857729,-13.687244,5.5794644
1500,5.1332026,-13.680066,5.3973107
1501,4.88405,-11.928819,3.1959138
1502,4.685147,-10.271192,0.9490533
1503,2.7376883,-8.623135,-0.4884349
1504,1.570888,-7.4805617,-0.663111
1505,-0.026919255,-5.9904313,-1.2382857
1506,-2.012663,-5.575875,0.34516466
1507,-2.4655046,-4.898108,1.7898313
1508,-2.7003005,-4.6202416,1.4518452
1509,-2.3312075,-5.1209397,0.28055847
1510,-1.3301103,-5.5112686,-2.076671
1511,-0.24735804,-5.992824,-4.404887
1512,0.12891331,-6.4935226,-4.7189455
1513,0.43788654,-6.9125657,-3.5569308
1514,-0.098703936,-8.0817585,-1.1159526
1515,-1.4114662,-9.830314,0.8865408
1516,-3.1890345,-11.84507,3.8258243
1517,-4.046562,-13.359129,7.0166535
1518,-3.275176,-14.058432,8.882756
1519,0.05712864,-13.272688,8.466105
1520,2.5220351,-12.640385,4.63071
1521,4.6612186,-13.3687,-2.361716
1522,3.6000016,-14.530416,-0.4645067
1523,1.721935,-14.537594,4.491926
1524,1.259522,-13.411771,6.84437
1525,3.9807596,-12.489338,4.1781673
1526,8.906086,-11.66531,-0.79501534
1527,10.417453,-11.574382,-3.1307094
1528,10.448559,-12.690634,-2.6898317
1529,7.7416787,-14.173586,1.5933207
1530,2.3685954,-15.773786,6.683752
1531,-1.0737791,-17.148762,6.832406
1532,-0.3909274,-15.577275,4.2906303
1533,1.5637096,-14.386547,6.257231
1534,4.1222353,-11.356337,5.0452666
1535,5.4110694,-10.647163,2.2375882
1536,5.7655063,-10.934601,-2.0045872
1537,5.521139,-11.068898,-3.3340993
1538,2.0620148,-12.261721,-5.669793
1539,-1.2843475,-16.485052,-3.3484561
1540,-3.1193435,-20.217258,-4.6899323
1541,-4.8825545,-22.967209,-5.1786666
1542,-5.9557357,-23.388945,-3.1570303
1543,-5.5244293,-21.005394,2.1442683
1544,-5.1436715,-18.566809,4.19731
1545,-5.7113686,-17.321045,1.2197413
1546,-6.113662,-16.921144,-0.5458627
1547,-5.3736815,-15.7184515,-1.4751751
1548,-4.518247,-14.317155,-1.5903298
1549,-4.511069,-12.01496,-2.9198418
1550,-2.4535406,-9.686745,-4.2421756
1551,0.933799,-7.434799,-2.6922245
1552,0.933799,-7.434799,-2.6922245
1553,2.2465613,-6.1677995,-0.5721837
1554,4.4312086,-5.118547,-1.0728818
1555,4.028616,-4.9579287,-1.8753748
1556,3.8156548,-4.3926244,-1.7748762
1557,3.2237303,-3.712165,-2.14367
1558,2.8094728,-2.4475584,-3.2455647
1559,1.7243278,-0.9526425,-4.08395
1560,1.1805589,0.28085756,-4.764409
1561,0.12891331,1.2367902,-5.413462
1562,-1.0857433,2.0105693,-4.5320063
1563,-2.9997022,3.2539396,-3.7630126
1564,-3.3445678,3.591627,-3.5808592
1565,-3.4259238,3.234498,-3.5808592
1566,-2.6979074,2.7317061,-2.7927232
1567,-2.2211375,2.408077,-4.167998
1568,-1.5430715,1.4524434,-4.496114
1569,0.64636123,-2.3347967,0.5129613
1570,0.18155542,-7.8086777,10.240982
1571,-1.4234303,-13.445271,23.519352
1572,-2.9255247,-24.692135,27.340092
1573,-7.637292,-35.24658,21.310778
1574,-1.5239289,-35.71856,22.374388
1575,2.617748,-25.075285,14.073984
1576,0.023330022,-14.556737,7.457531
1577,-2.5301108,-8.785847,5.3350973
1578,-4.851448,-4.069294,3.8931224
1579,-7.170093,-1.1587243,-2.7113671
1580,-11.676077,-6.0526447,0.8530413
1581,-12.775579,-12.527623,7.0549383
1582,-11.510972,-13.948361,7.4359956
1583,-3.8356948,-19.15604,7.0669026
1584,1.6334006,-20.916859,3.7803607
1585,6.876972,-16.037296,-13.007384
1586,7.614859,-9.547662,-16.6029
1587,2.5435705,-6.555736,-6.6017976
1588,-2.0748763,-5.6168523,4.721936
1589,-2.5085754,-5.679065,6.7244296
1590,-0.4339982,-6.2611194,-5.6171513
1591,0.6798607,-6.9942207,-13.82902
1592,0.61046886,-7.166504,-14.015659
1593,-1.4665012,-8.412267,-8.084451
1594,-0.56111693,-9.988539,-4.069593
1595,1.0725827,-11.274981,-1.247857
1596,2.1601207,-12.731312,2.5348964
1597,2.768795,-13.136297,3.8353956
1598,2.9650064,-13.339687,4.4871407
1599,3.2455647,-11.358729,3.4522448
1600,2.495714,-10.671092,2.649752
1601,1.681257,-9.027821,1.047159
1602,0.07627122,-6.81446,-0.581755
1603,-1.6749759,-5.496912,0.5943173
1604,-2.5995028,-4.7566323,2.3216362
1605,-3.481258,-4.8382874,2.0964117
1606,-2.9829526,-5.1664033,0.4316054
1607,-1.1934203,-5.048856,-3.1043882
1608,-0.06281159,-4.895715,-5.2459645
1609,0.5626124,-5.3365927,-5.645865
1610,0.20548365,-6.1414785,-4.028915
1611,-0.024526432,-7.217052,-1.532902
1612,-0.14656039,-9.387342,1.2077773
1613,-0.97776717,-12.606885,4.2834516
1614,-1.5263218,-15.265909,7.210771
1615,-1.0785648,-15.934105,8.734401
1616,1.0893325,-13.842778,10.890334
1617,1.0893325,-13.842778,10.890334
1618,1.0893325,-13.842778,10.890334
1619,2.6153553,-12.103794,-4.5320063
1620,-0.5371887,-13.466805,2.6569304
1621,0.20787647,-13.934005,7.474281
1622,3.882654,-13.8021,7.711469
1623,8.1012,-13.60559,-0.11216356
1624,11.88844,-13.46202,-4.316353
1625,12.899407,-13.888242,-1.9375881
1626,8.692825,-14.621343,3.9744785
1627,4.0504503,-15.675381,8.108976
1628,-1.4665012,-15.804893,6.1304116
1629,-0.9179466,-16.35584,6.2309103
1630,1.2786646,-15.397514,7.433603
1631,3.214159,-14.851353,4.41057
1632,5.283951,-13.387843,0.4004987
1633,5.889933,-11.737094,-5.3153563
1634,3.894618,-11.322837,-8.228319
1635,0.7325028,-13.080963,-4.968098
1636,-2.8582265,-16.997715,-1.6764714
1637,-3.938586,-19.527527,-3.3750763
1638,-5.747261,-22.018753,-4.6061835
1639,-6.140282,-21.795923,-1.8251255
1640,-4.9663033,-19.383657,2.9132617
1641,-4.647759,-18.169,3.3637104
1642,-4.6836514,-17.124834,1.2867404
1643,-4.930411,-16.59542,-0.08823533
1644,-4.959125,-15.45255,-0.89072824
1645,-6.283851,-13.794922,-2.2585254
1646,-6.645467,-12.118151,-4.1847477
1647,-2.3192434,-8.541779,-4.0408792
1648,-0.017347964,-6.230013,-2.05035
1649,0.5697909,-5.973682,-0.33020952
1650,1.6932211,-5.2836514,-0.11694921
1651,3.3412778,-4.684848,-1.6334006
1652,4.3211384,-4.1434717,-2.548356
1653,4.1844487,-3.3649068,-2.80708
1654,3.7268212,-2.5384858,-3.3631122
1655,3.094518,-1.096511,-4.510471
1656,2.2441685,-0.011365907,-4.8529434
1657,1.5349957,1.061815,-4.54397
1658,0.5479564,2.245365,-4.479364
1659,-0.939482,3.1866415,-4.2445683
1660,-1.6534405,3.1890345,-3.3340993
1661,-1.3420744,2.5926232,-2.8695927
1662,-1.2053844,2.2238295,-2.2226331
1663,-0.2952145,1.8858434,0.8458628
1664,0.29910284,0.91106725,0.062512495
1665,-0.13459627,-1.8894325,-0.84047896
1666,-2.882155,-6.387939,4.599603
1667,-5.8839507,-12.474981,19.403997
1668,-6.595217,-20.27947,23.234308
1669,-5.651548,-28.709385,17.64557
1670,-5.5794644,-32.494232,19.480568
1671,0.29671,-26.333014,20.050657
1672,1.9208384,-16.581064,11.486745
1673,-0.59700924,-8.697312,6.8105717
1674,-3.9673,-3.187838,4.788935
1675,-6.25753,-3.1950164,-1.7700906
1676,-9.239884,-7.4012995,-1.6453646
1677,-12.643974,-14.118252,3.2700913
1678,-7.433603,-20.557337,4.321737
1679,-3.3756745,-21.443878,6.7794647
1680,0.26291138,-18.9691,7.0983086
1681,5.988338,-12.697812,-11.694622
1682,5.293522,-6.893423,-15.434005
1683,-0.084346995,-4.843073,-4.7548375
1684,-3.6750765,-4.6226344,3.653541
1685,-3.2033913,-5.238188,2.743072
1686,0.31345975,-6.47438,-8.235497
1687,2.2680967,-6.9391856,-14.641084
1688,0.6415756,-7.8900337,-11.018949
1689,-0.5419743,-8.85793,-6.0915284
1690,-0.48424748,-9.775279,-3.5330026
1691,1.192523,-11.1478615,-0.39960137
1692,2.835794,-12.573385,2.4269204
1693,4.1724844,-13.294224,4.115655
1694,5.9787664,-13.512269,4.1638107
1695,6.9678993,-12.776775,3.3804603
1696,6.2159553,-11.042578,2.0581267
1697,3.1280174,-9.032606,0.014656039
1698,1.2379866,-6.555736,-0.91465646
1699,-1.4808581,-5.29083,0.09601201
1700,-3.016452,-4.5170507,1.9046868
1701,-4.2837505,-4.447659,1.602892
1702,-4.578367,-4.584349,0.70229346
1703,-4.099204,-4.6633124,-0.56500524
1704,-3.19382,-4.9531426,-3.4707892
1705,-2.2331018,-5.401199,-4.2278185
1706,-1.7012969,-6.3664036,-3.7941194
1707,-1.6031911,-7.8493557,-1.8705891
1708,-1.6031911,-7.8493557,-1.8705891
1709,-2.065305,-12.455838,1.3417753
1710,-2.2378874,-14.841782,3.9673
1711,-1.2795619,-16.10908,6.3867426
1712,0.40917268,-14.968901,8.252846
1713,2.6488547,-12.041581,5.747261
1714,2.9940193,-12.055938,-0.04755735
1715,2.3614168,-13.905291,-2.917449
1716,2.3829522,-14.226228,2.7095726
1717,3.7674992,-13.421342,6.9855466
1718,5.2959146,-13.045071,5.502894
1719,9.119047,-12.616456,1.4976078
1720,11.08834,-13.076178,-0.34456646
1721,10.736296,-13.948361,-0.85244304
1722,7.54786,-14.839389,1.7970098
1723,4.4024944,-15.958034,4.9974103
1724,1.8894325,-16.815561,6.1495543
1725,2.33031,-16.351055,7.663613
1726,3.144767,-15.459728,7.8000035
1727,3.417848,-15.212968,4.0869412
1728,3.2934213,-14.015361,-2.6515465
1729,1.9160527,-12.860824,-4.7428737
1730,-0.14895321,-13.212868,-7.658229
1731,-2.1302104,-15.129219,-5.8184476
1732,-4.6764727,-19.41955,-2.8265216
1733,-6.1737814,-21.19951,-3.5042887
1734,-6.2312093,-21.144476,-2.1604197
1735,-5.6156554,-20.032711,0.2111666
1736,-4.6142592,-17.318651,2.8486555
1737,-4.384249,-16.118652,1.7730815
1738,-4.796413,-15.615561,-0.0044865427
1739,-5.040481,-15.002399,-0.5027919
1740,-6.108876,-13.799707,-1.6094723
1741,-6.1160545,-11.931211,-3.758227
1742,-3.0810583,-8.848359,-4.019344
1743,-1.1192428,-7.183254,-3.4085758
1744,1.4153546,-6.0167527,-1.9615164
1745,3.05384,-5.695815,-1.4850456
1746,4.2705903,-4.895715,-2.1245275
1747,4.368995,-4.476373,-1.9734805
1748,4.6372905,-3.6643088,-0.96759766
1749,4.927121,-2.8570302,-1.1685947
1750,4.6755753,-1.96361,-2.9676983
1751,2.8453653,-1.2424731,-4.5726843
1752,1.681257,-0.7899306,-4.7309093
1753,-0.6089734,0.75523466,-4.223033
1754,-2.2331018,2.3410778,-5.3703914
1755,-3.205784,3.1603205,-4.148556
1756,-3.263212,3.2730823,-3.353242
1757,-2.7146573,3.1483564,-1.9495523
1758,-1.5574285,2.949453,-1.5352948
1759,-0.37417763,1.5696917,-3.6744783
1760,-0.31435707,-1.4006985,0.9921241
1761,-1.8113668,-6.869495,10.257731
1762,-2.2666013,-13.397414,26.5041
1763,-3.2656047,-20.962322,24.956541
1764,-6.084948,-25.13062,22.774288
1765,-6.0777693,-32.66921,22.498814
1766,-4.0106697,-31.430622,20.357237
1767,-0.14656039,-17.941683,5.5244293
1768,-2.1445673,-8.66142,3.5790644
1769,-5.1460643,-5.0536413,1.3345969
1770,-8.130812,-3.7387853,0.9586246
1771,-11.046166,-8.72124,-1.57358
1772,-10.291531,-12.522838,-3.4516466
1773,-7.6109705,-16.58585,5.5746784
1774,-2.2929223,-20.109581,10.902298
1775,5.046762,-17.407486,-9.380463
1776,5.7607207,-12.460624,-14.363217
1777,0.70378894,-9.940682,-5.906982
1778,-2.3694925,-8.292626,6.1064835
1779,-1.5119648,-7.69113,5.8022957
1780,2.140978,-7.4709907,-7.8424764
1781,4.1700916,-6.632306,-14.631513
1782,2.725724,-6.7115684,-10.611869
1783,1.5661024,-7.2385874,-6.2350974
1784,1.3818551,-8.548957,-2.4143581
1785,1.6645073,-9.653245,-0.89072824
1786,2.5435705,-11.210075,0.625424
1787,2.766402,-12.716955,1.9166509
1788,2.7520452,-13.203297,2.6736803
1789,3.077768,-12.927822,3.2365918
1790,2.0285153,-11.042578,3.0376883
1791,0.7109674,-9.564411,2.2881367
1792,-0.54436713,-6.3831534,0.47706902
1793,-1.6558332,-5.413163,0.09361918
1794,-3.2177482,-4.8502517,1.5861423
1795,-3.9290147,-4.5987062,2.1490538
1796,-3.653541,-4.790132,1.495215
1797,-2.6377878,-5.032106,-0.04755735
1798,-1.4521443,-5.2070813,-3.5330026
1799,-0.85812604,-5.7317076,-4.939085
1800,-0.43878385,-6.4289165,-4.505685
1801,-0.7046863,-7.739286,-3.4899318
1802,-1.0737791,-9.806385,-2.1556342
1803,-1.579263,-12.491731,0.8650054
1804,-1.9193429,-14.853745,5.4813585
1805,-0.6735796,-14.961721,10.593325
1806,1.2690933,-12.209079,12.152548
1807,2.617748,-10.565807,7.112665
1808,2.8597221,-10.922637,-2.1556342
1809,2.021337,-13.450056,-4.060022
1810,1.5804594,-14.580665,0.77647096
1811,2.385345,-14.767604,6.693323
1812,4.17727,-14.108681,6.101698
1813,6.5225353,-13.677673,3.8114674
1814,10.094122,-13.093226,-1.029811
1815,10.613963,-13.196117,-1.7003996
1816,9.073584,-14.892031,2.3958137
1817,3.7339997,-16.69592,7.878967
1818,0.72293156,-16.971394,7.349854
1819,-0.43639103,-16.870895,7.701898
1820,0.39720857,-15.800107,7.4527454
1821,4.1437707,-13.483556,4.3743787
1822,6.038587,-12.405589,0.97537434
1823,4.65404,-10.910673,-6.501
1824,1.3097713,-11.552847,-5.595616
1825,-0.3909274,-12.807882,-3.7701912
1826,-2.9422746,-17.37877,-2.778366
1827,-4.451248,-21.362223,-5.274678
1828,-6.1064835,-23.269302,-4.138985
1829,-6.5521464,-22.804497,-1.4440684
1830,-5.9748783,-20.44009,2.472384
1831,-5.270491,-18.293728,3.2940195
1832,-5.0452666,-17.301903,1.8903298
1833,-4.3292146,-15.960426,-0.53389853
1834,-4.1997027,-13.981861,-2.1628125
1835,-5.352146,-12.256935,-3.841976
1836,-3.4740794,-10.369297,-4.397709
1837,-2.405684,-9.763314,-4.4745784
1838,0.7827521,-6.4815583,-1.4560326
1839,1.8678972,-5.712565,-1.463211
1840,3.990331,-4.816752,-1.9495523
1841,5.0252266,-4.1889353,-2.2082763
1842,4.735396,-3.621238,-1.925624
1843,3.7244284,-2.7876384,-1.6214365
1844,2.3255246,-1.7144574,-2.7065816
1845,1.0654043,-0.84735835,-3.3556347
1846,-0.4531408,-0.0951147,-3.6143587
1847,-0.92512506,1.0187442,-4.4985065
1848,-2.6691937,2.0344975,-4.9896336
1849,-3.6224344,2.5878377,-4.357031
1850,-4.1662035,3.4836507,-3.9786658
1851,-3.3613176,3.6107693,-2.8983064
1852,-2.853441,3.275475,-1.6022938
1853,-1.9600209,2.4681966,-4.342674
1854,0.4139583,1.2224332,-4.2373896
1855,0.33738798,-2.4212375,0.64935225
1856,-0.6113662,-5.2884374,3.7253258
1857,-1.5358931,-14.903995,23.662922
1858,-0.95383894,-22.416262,25.79732
1859,-6.8802624,-31.279575,26.04408
1860,-4.9663033,-35.41437,26.95455
1861,2.495714,-27.19054,12.665211
1862,1.6597216,-16.039688,6.9592257
1863,-1.3372887,-9.545269,5.9602222
1864,-7.852945,-4.193721,3.7109687
1865,-10.775478,-6.198906,-0.26799613
1866,-13.896915,-11.064113,0.34516466
1867,-14.150555,-15.440585,1.7033906
1868,-14.150555,-15.440585,1.7033906
1869,-0.5347959,-17.103298,2.7622147
1870,6.3738813,-12.911073,-11.354242
1871,7.4997044,-9.011071,-16.51915
1872,2.4068804,-8.000103,-6.745367
1873,-1.4928222,-8.1679,0.9490533
1874,-2.6425736,-8.822038,1.835295
1875,-0.88205427,-8.872287,-8.343174
1876,-0.13220344,-9.226724,-12.226426
1877,-0.73579293,-9.142975,-9.035598
1878,-0.9059825,-9.188439,-4.9920263
1879,-0.3909274,-9.585947,-1.9950159
1880,1.1159526,-10.517951,-0.033200413
1881,2.34706,-11.548061,2.2351954
1882,2.80708,-12.0176525,3.5144582
1883,3.484847,-11.653345,3.1049864
1884,4.17727,-10.929815,1.9238294
1885,3.4250264,-9.928719,1.4928222
1886,2.2322044,-8.503195,1.3537394
1887,-0.19202402,-6.663413,0.33559337
1888,-1.0256236,-5.2238307,0.50099725
1889,-1.3803595,-4.2128634,0.8985049
1890,-1.9815563,-4.1817565,0.15134603
1891,-1.8113668,-4.5098724,-1.695614
1892,-0.77677006,-4.4955153,-4.1294136
1893,-0.6329016,-5.238188,-5.1140604
1894,-1.0809577,-6.7689962,-3.7917266
1895,-1.6271194,-8.345268,-1.5376877
1896,-1.6534405,-10.477273,0.48424748
1897,-2.405684,-13.126726,3.6152558
1898,-2.405684,-14.532808,7.7066836
1899,-0.71665037,-13.876278,11.21845
1900,1.829612,-12.10858,9.886545
1901,4.1844487,-11.672488,1.6722839
1902,5.236094,-12.065509,-3.0011978
1903,5.3294144,-12.693027,-3.5808592
1904,5.030012,-12.896716,-2.71376
1905,0.030807592,-13.4022,7.474281
1906,1.9998015,-12.899109,5.035695
1907,4.979763,-12.2019,0.39571303
1908,9.377771,-11.95514,-3.1115668
1909,12.18545,-13.181761,-2.3401806
1910,10.918151,-15.069399,1.4904294
1911,4.493422,-17.047964,6.916155
1912,-0.58265233,-17.246868,6.753144
1913,-1.971985,-16.12583,5.093123
1914,-0.6520442,-14.872889,8.209774
1915,1.9064814,-13.943576,7.2873416
1916,5.331807,-12.783954,0.97537434
1917,6.6996045,-11.119147,-5.2698927
1918,4.42403,-10.683355,-7.246065
1919,1.2236297,-12.537194,-4.340281
1920,-1.753939,-16.307983,-2.4670002
1921,-3.588935,-19.757238,-4.45065
1922,-5.1006007,-21.81985,-5.185845
1923,-6.8635125,-23.17329,-1.8634106
1924,-6.5665035,-21.580269,2.3336003
1925,-5.9964137,-19.230219,2.431706
1926,-5.536393,-17.407486,0.54646087
1927,-5.433502,-16.480267,-0.99631155
1928,-5.529215,-15.6873455,-1.0393823
1929,-6.2431736,-13.7374935,-1.2933207
1930,-6.1881385,-11.653345,-3.705585
1931,-2.7649066,-8.867501,-3.9595232
1932,-0.19680966,-6.198906,-2.6898317
1933,0.14566308,-5.496912,-1.5041882
1934,1.7386848,-4.85743,-1.3004991
1935,3.7124643,-4.569992,-2.376073
1936,4.5675993,-4.1721854,-2.347359
1937,4.5822554,-3.0678978,-2.117349
1938,4.57747,-2.0521445,-3.0107691
1939,4.2681975,-1.1228321,-3.8997028
1940,3.0490541,-0.109471634,-5.0829535
1941,1.2738789,1.2272189,-4.982455
1942,-0.07956135,2.027319,-4.4674
1943,-0.74536425,2.259722,-4.215854
1944,-3.0667014,3.1603205,-4.4024944
1945,-3.6104703,3.5102708,-4.1198425
1946,-3.083451,3.6323047,-2.7711878
1947,-2.25703,3.2539396,-1.8418752
1948,-1.5936198,1.6319051,-2.8671997
1949,0.13848461,-0.78035927,0.5703891
1950,-1.7108682,-6.1268225,7.2705917
1951,-4.1518464,-13.263117,20.381166
1952,-5.4574304,-20.734705,23.852255
1953,-7.064809,-29.775387,22.472492
1954,-4.631009,-35.84568,23.521746
1955,1.4249259,-29.293833,17.001305
1956,2.2872393,-18.835104,9.373882
1957,-0.369392,-10.335797,6.262017
1958,-3.8644085,-3.906283,6.096912
1959,-6.3341007,-2.4882364,1.1213365
1960,-10.358529,-5.9521465,-0.77587277
1961,-13.67887,-12.443874,3.5503507
1962,-8.796615,-17.215761,3.2533414
1963,-4.0513477,-18.964315,4.688437
1964,1.0438689,-17.622839,5.241777
1965,5.981159,-12.465409,-15.230316
1966,5.319843,-7.528418,-14.590535
1967,0.30867413,-5.9497533,-4.3331027
1968,-2.2737796,-5.805885,4.549354
1969,-1.8233309,-6.263512,2.7358935
1970,1.7386848,-7.4733834,-11.529218
1971,1.8798612,-7.9019976,-14.178671
1972,0.24855445,-8.460124,-10.322039
1973,-0.6472585,-9.063713,-6.0987067
1974,0.35413775,-10.688141,-1.640579
1975,2.565106,-11.9407835,1.1691929
1976,4.002295,-12.767204,3.1983066
1977,4.3259244,-12.982858,3.5144582
1978,4.438387,-12.446267,3.5240295
1979,4.3259244,-11.729916,2.5348964
1980,2.725724,-10.37169,1.3130615
1981,2.0237298,-8.599206,-0.0738784
1982,-1.0304092,-5.8803616,-0.89072824
1983,-2.0341983,-4.9603214,0.031405795
1984,-2.5636103,-4.0645084,1.3824533
1985,-4.336393,-3.8751762,1.2843475
1986,-4.3292146,-4.1841493,-0.7040881
1987,-3.8380876,-4.3112683,-4.223033
1988,-3.2129626,-4.8933225,-5.94766
1989,-2.9303105,-6.32094,-5.011169
1990,-2.5588248,-8.163115,-2.687439
1991,-2.3718855,-10.910673,-0.29671
1992,-2.6548367,-14.120645,2.4580271
1993,-2.2211375,-15.519848,6.6885376
1994,-0.4339982,-14.446667,11.889038
1995,1.1231312,-12.6523485,13.024732
1996,3.8682969,-11.41855,2.1658037
1997,5.195416,-12.575779,-5.710471
1998,5.195416,-12.575779,-5.710471
1999,3.0227332,-13.514663,5.069195
2000,2.6488547,-12.829717,7.522137
2001,4.1461635,-12.209079,6.3508506
2002,8.67129,-11.052149,-0.46929234
2003,10.563714,-11.181361,-3.3702908
2004,11.696715,-12.235399,-3.4899318
2005,9.567103,-13.993825,2.894119
2006,2.9530423,-16.463516,8.336594
2007,-1.1264212,-17.4027,6.5255265
2008,-1.361217,-16.123438,4.261916
2009,0.974477,-14.238192,6.5808606
2010,3.391527,-13.902898,3.7803607
2011,5.044369,-13.141083,-0.71365935
2012,4.7377887,-11.976676,-5.4349976
2013,2.5148566,-12.144472,-5.035097
2014,-0.5204389,-14.707784,-1.2693924
2015,-3.4211383,-18.684057,-0.5195416
2016,-4.228417,-21.280867,-3.8156548
2017,-5.1006007,-22.631914,-5.375177
2018,-5.7041903,-22.229622,-3.8925242
2019,-4.9806604,-19.132113,0.29252258
2020,-4.484748,-17.412271,2.5588248
2021,-4.3411784,-16.693527,2.9946175
2022,-4.7674,-16.130615,1.9477576
2023,-5.395217,-15.423836,0.05054838
2024,-5.6467624,-14.060824,-2.567798
2025,-5.2609196,-11.935998,-5.0805607
2026,-2.2091734,-9.346664,-4.2134614
2027,0.55513483,-7.0061846,-2.1771696
2028,1.1231312,-6.22762,-1.0657034
2029,1.7554345,-5.252545,-1.1733804
2030,2.9626136,-4.371089,-2.2585254
2031,4.0648074,-3.9445682,-2.658725
2032,3.772285,-3.35055,-2.0551355
2033,3.4202409,-2.344368,-2.2154546
2034,2.7711878,-1.3624134,-2.7305098
2035,2.5507488,-0.212363,-3.9451663
2036,1.6525432,0.77677006,-5.094918
2037,-0.7262217,1.9698912,-5.1499524
2038,-2.3072793,2.6021945,-4.7620163
2039,-3.2991042,3.153142,-4.6205406
2040,-3.5027933,3.4070804,-4.7572303
2041,-3.2321053,3.5724843,-3.1378877
2042,-1.9528424,3.4573295,-3.0610185
2043,0.11934203,2.5902305,-4.4434714
2044,-1.1192428,-0.97896355,-2.8241289
2045,-2.3841486,-6.33769,5.6297135
2046,-2.774478,-11.677274,14.85255
2047,-2.7361927,-20.761026,27.332914
2048,-4.64058,-28.922646,23.725435
2049,-6.856334,-36.48516,21.799511
2050,0.3469593,-30.08436,19.339092
2051,2.7568307,-19.218254,10.8352995
2052,0.55752766,-10.709676,7.06451
2053,-2.0318055,-3.7049868,5.8764734
2054,-3.0379875,-1.3241283,4.5373898
2055,-7.778767,-6.72114,-0.11934203
2056,-10.552647,-11.749357,1.3920245
2057,-8.114061,-16.437197,0.56560344
2058,-3.9074793,-17.975183,2.5995028
2059,-2.4607189,-17.187046,3.1456645
2060,2.0979073,-13.330116,-5.93091
2061,3.3723843,-9.19801,-11.840584
2062,-0.90119684,-7.842177,-3.3918262
2063,-3.3038898,-7.2098737,3.8593237
2064,-1.2125629,-7.322336,0.3595216
2065,2.80708,-7.492526,-12.108879
2066,2.984448,-7.7679996,-16.145271
2067,0.22462623,-8.718847,-10.465608
2068,-0.9203394,-9.416057,-4.627719
2069,0.011365907,-10.182656,-1.3698909
2070,0.91465646,-10.913066,0.43639103
2071,2.4502504,-12.479767,3.083451
2072,3.269493,-12.894323,3.6176488
2073,3.4393835,-12.707384,4.0127635
2074,3.7124643,-12.096616,2.961118
2075,2.5698915,-10.477273,1.1165509
2076,1.2834502,-9.169296,-0.009272188
2077,-0.78634137,-6.5318074,-0.70169526
2078,-2.446362,-5.614459,-0.023629123
2079,-2.9446673,-4.677669,1.2077773
2080,-3.9457645,-4.328018,2.0964117
2081,-3.9481573,-4.680062,1.2915261
2082,-2.7003005,-4.991428,-1.3842479
2083,-1.5239289,-5.3700924,-3.9403806
2084,-0.8102696,-5.901897,-4.651647
2085,-0.37657046,-6.8431735,-3.2623146
2086,-0.055633128,-8.088937,-1.5352948
2087,0.054735817,-9.978968,-0.14596218
2088,-0.10827523,-11.507383,0.92482597
2089,-0.23748764,-13.366307,4.6788654
2090,0.6870392,-13.30858,9.242277
2091,1.6908283,-12.297912,11.786147
2092,3.595216,-11.210075,5.7349977
2093,4.569992,-11.5672035,-2.3641088
2094,3.3149567,-12.896716,-4.0121655
2095,0.62721866,-13.847564,1.2125629
2096,-0.14656039,-13.885849,6.1998034
2097,2.2010977,-13.5074835,7.198807
2098,6.0768723,-13.045071,2.513062
2099,9.730114,-12.740883,-1.9710877
2100,12.08495,-13.330116,-2.6252255
2101,11.215159,-14.415261,0.5297111
2102,5.2719865,-15.330516,7.2873416
2103,1.8846469,-15.498312,8.688937
2104,-3.572185,-16.487446,6.492027
2105,-1.6438692,-15.289838,6.8276205
2106,-1.6438692,-15.289838,6.8276205
2107,6.3403816,-12.486945,1.483251
2108,7.016055,-11.475977,-4.469793
2109,4.936692,-11.41855,-5.523831
2110,2.1026928,-13.373486,-4.086343
2111,-1.0232308,-17.330616,-3.243172
2112,-3.1552358,-20.928823,-5.0685964
2113,-5.3473606,-23.36023,-5.4373903
2114,-7.4647093,-24.062225,-3.1689944
2115,-6.3939214,-20.914467,1.5693926
2116,-5.404788,-18.717855,3.7301114
2117,-5.191528,-17.306688,2.5325036
2118,-5.514858,-16.616957,-0.21296121
2119,-6.224031,-15.543776,-1.492224
2120,-5.716154,-13.826028,-3.0155547
2121,-5.419145,-11.617453,-4.8026943
2122,-1.8786649,-8.46491,-3.6481571
2123,0.15284155,-6.1196437,-1.8562322
2124,0.4354937,-5.7077794,-1.1470593
2125,2.1194427,-4.910072,-1.302892
2126,3.499204,-4.217649,-1.6836498
2127,4.3666024,-3.7555351,-2.05035
2128,4.9438705,-3.226123,-1.492224
2129,5.07069,-3.1109686,-1.4584254
2130,5.135596,-2.9120653,-1.5616158
2131,2.1939192,-0.7851449,-3.949952
2132,0.16241284,0.64277196,-6.1178493
2133,-1.3106686,1.6441683,-5.686543
2134,-3.7615173,3.0933216,-5.293821
2135,-4.305286,3.641876,-4.939085
2136,-4.247559,3.4190445,-5.023133
2137,-3.409174,2.923132,-3.9810586
2138,-2.853441,2.544767,-2.9365916
2139,-0.6376872,1.4285151,-2.7017958
2140,2.140978,-1.1826526,-0.43818563
2141,1.2690933,-6.285048,6.204589
2142,0.54317075,-7.70788,9.038589
2143,-3.8524444,-19.791037,28.27449
2144,-8.111669,-30.388548,20.635105
2145,-6.6598234,-35.349766,19.272093
2146,0.13130614,-27.173792,17.403597
2147,-0.093918286,-17.37877,8.889935
2148,-1.8858434,-9.679565,7.227521
2149,-2.1421745,-3.7097723,6.0009003
2150,-3.0667014,-0.47826543,0.6999006
2151,-7.522436,-2.7206392,-0.81894356
2152,-12.344572,-7.626524,0.103190474
2153,-11.829517,-14.024932,-0.6343971
2154,-7.778767,-18.808783,4.8559346
2155,-3.481258,-22.54338,6.585646
2156,3.3149567,-21.161226,3.5671003
2157,9.174381,-14.623735,-14.236098
2158,3.7220356,-9.24826,-11.591431
2159,-0.40528435,-5.82742,0.9825528
2160,-2.3192434,-5.2836514,8.854042
2161,-0.45553362,-5.7053866,-2.0165513
2162,2.1050856,-5.9353967,-14.954843
2163,1.829612,-5.9712887,-15.328422
2164,0.17676978,-6.7115684,-10.745868
2165,-1.4306089,-8.498408,-3.74387
2166,-1.1599208,-9.851849,-0.69930243
2167,0.4953143,-11.318051,2.3575284
2168,2.0141585,-12.64517,4.022335
2169,2.8549366,-13.1745825,3.6607196
2170,3.51386,-13.514663,3.1265218
2171,4.682754,-13.126726,2.879762
2172,3.9640098,-11.533704,2.0485554
2173,2.5866413,-9.104691,-0.25842485
2174,1.0079765,-6.730711,-1.4153546
2175,-0.4459623,-5.4705906,-0.20338993
2176,-1.34686,-4.5412784,1.346561
2177,-2.6955147,-4.328018,1.6698911
2178,-3.0403802,-4.5915275,-0.07627122
2179,-2.935096,-4.478766,-2.8935208
2180,-2.786442,-4.546064,-4.7979083
2181,-2.8917263,-5.358128,-4.1318064
2182,-2.623431,-6.754639,-1.559223
2183,-2.5492535,-8.469695,0.5488537
2184,-2.268994,-10.671092,2.5492535
2185,-2.3742783,-12.872787,3.286841
2186,-1.5239289,-14.127823,5.265705
2187,0.4235296,-13.557734,8.089834
2188,2.2992034,-12.4319105,7.522137
2189,4.8287163,-11.816357,2.0006988
2190,5.6168523,-12.807882,-3.5880375
2191,3.7749767,-14.130216,0.93708915
2192,2.5387847,-13.912469,4.362415
2193,2.6129622,-13.109976,6.056234
2194,5.3150573,-12.446267,3.0882368
2195,8.379066,-12.099009,-0.40917268
2196,10.051051,-12.609278,-2.2441685
2197,9.555139,-14.49213,-0.3062813
2198,5.5857453,-17.531912,5.229813
2199,2.210669,-19.005293,5.898009
2200,0.6511469,-17.958433,5.4813585
2201,0.4426722,-16.53291,6.0777693
2202,2.4741786,-15.828821,4.5948176
2203,3.7531424,-15.304194,3.5168512
2204,2.548356,-12.877573,-1.3555341
2205,0.21505493,-12.216257,-3.7749767
2206,-2.1852453,-13.442878,-4.2014976
2207,-5.067101,-16.374983,-2.2848465
2208,-6.4588265,-19.132113,-1.7700906
2209,-6.875477,-20.777777,-3.4683964
2210,-6.4851475,-20.420946,-3.9834516
2211,-5.035695,-17.963219,-2.536392
2212,-3.7758741,-15.831214,2.077269
2213,-3.1193435,-14.666806,5.143372
2214,-3.1743784,-14.506487,2.6712873
2215,-3.641577,-13.945969,-0.3589234
2216,-4.2981076,-13.033107,-3.0753753
2217,-3.845266,-11.428121,-5.751149
2218,-1.5550356,-9.068499,-5.293821
2219,0.30867413,-7.339086,-2.917449
2220,0.95054877,-6.0119667,-1.015454
2221,2.318346,-5.1640105,-0.30149564
2222,2.9075787,-4.5508494,-1.058525
2223,3.257529,-4.4093738,-1.8897316
2224,3.1543384,-3.9254255,-2.5339992
2225,3.0921252,-3.336193,-2.9413772
2226,2.1723838,-2.7684958,-3.2742786
2227,1.8822541,-1.2400804,-4.4001017
2228,1.0749756,-0.24107689,-5.049454
2229,-0.41485563,0.87278205,-4.299603
2230,-0.65682983,1.4859428,-3.7127635
2231,-2.3718855,2.286043,-3.1833515
2232,-3.6056845,2.5830522,-2.7616165
2233,-2.5899315,3.383152,-0.1698904
2234,-1.2699906,3.371188,0.70229346
2235,-1.2819548,2.338685,-3.6816568
2236,-0.51086766,0.09421739,-3.5784662
2237,-1.2723835,-4.61067,1.7324036
2238,-2.4152553,-11.854642,14.672789
2239,-3.2991042,-19.35973,24.76033
2240,-1.8400806,-25.473093,24.33381
2241,-2.405684,-34.66213,22.314268
2242,0.9720842,-32.046177,22.331017
2243,3.5066817,-21.384058,11.213664
2244,1.0893325,-12.15165,4.805685
2245,-2.038984,-4.833502,4.1781673
2246,-4.753043,-2.426023,-0.12412767
2247,-8.042277,-4.596313,-3.4779677
2248,-12.231811,-11.260623,-1.9854445
2249,-12.049955,-15.098113,-2.9629126
2250,-9.350254,-18.945173,4.9806604
2251,-5.625227,-20.55973,11.987443
2252,3.1591241,-17.261225,-2.1628125
2253,7.8687973,-11.483455,-13.864912
2254,5.5977097,-8.285447,-7.9767733
2255,1.8583258,-5.556732,-0.63200426
2256,1.5565311,-4.912465,-1.5616158
2257,2.1050856,-5.319544,-6.769295
2258,1.3722838,-6.402595,-11.740086
2259,-0.97537434,-7.082755,-10.369895
2260,-2.7242286,-7.5978103,-5.662615
2261,-2.2881367,-8.429017,-2.565405
2262,-0.8461619,-9.815957,-0.38763726
2263,0.21744776,-11.490633,2.1538396
2264,1.1303096,-12.369697,3.5838501
2265,2.335096,-12.736097,3.9625144
2266,3.650251,-12.489338,3.191128
2267,3.2383864,-11.114362,1.6292131
2268,2.7305098,-10.340583,0.8673982
2269,0.47138608,-7.6576304,-1.0728818
2270,-0.75972116,-6.0981083,-0.6583253
2271,-1.8233309,-4.907679,0.80997044
2272,-3.0810583,-4.7398825,1.3250256
2273,-2.9805596,-4.938786,-0.2632105
2274,-2.0868404,-4.831109,-3.1570303
2275,-1.6319051,-5.2740803,-5.0542397
2276,-1.3755739,-6.2347984,-4.2684965
2277,-1.1694921,-7.406085,-2.7065816
2278,-1.3372887,-8.503195,-1.7243278
2279,-1.4162519,-11.3778715,-0.059521463
2280,-1.8595223,-13.663317,3.1480572
2281,-1.0112667,-14.638093,7.5604224
2282,0.50009996,-13.92204,10.444671
2283,2.9748766,-12.020045,9.596714
2284,4.31396,-12.01496,2.6258237
2285,4.4814577,-12.671492,-2.4143581
2286,3.2213376,-13.016357,-2.4933212
2287,0.1480559,-13.157832,2.1107686
2288,-1.1072787,-12.918251,8.260024
2289,2.1867409,-12.503695,5.7349977
2290,6.680462,-11.924033,-1.5209379
2291,10.30499,-12.441482,-3.6840496
2292,12.293126,-13.778172,-1.492224
2293,9.418748,-14.506487,3.8617167
2294,3.5521452,-15.737595,8.763115
2295,-0.8365906,-15.615561,6.168697
2296,-0.62811595,-15.737595,6.515955
2297,1.0869397,-13.924433,6.7794647
2298,3.9520457,-13.282259,1.9932213
2299,6.227919,-12.599707,-1.3674982
2300,5.9500527,-12.242578,-5.0255256
2301,3.4130623,-12.44866,-6.3717875
2302,-0.8605189,-16.104294,-2.2154546
2303,-3.679862,-20.169401,-2.7233312
2304,-5.246563,-22.921745,-6.02423
2305,-6.954739,-24.052355,-5.990731
2306,-7.0002027,-21.815065,-1.5568303
2307,-5.555536,-18.82314,2.9443684
2308,-4.7916274,-17.021643,4.0007997
2309,-4.6669016,-16.149757,2.4269204
2310,-4.772186,-15.550955,-0.19381863
2311,-5.59412,-14.386547,-0.9771689
2312,-5.581857,-12.73849,-4.0121655
2313,-4.1494536,-10.651949,-5.782555
2314,-1.4904294,-7.9857464,-4.0241294
2315,0.07148558,-6.1582284,-2.141277
2316,-0.036490545,-5.643173,-1.5759728
2317,2.2561326,-4.5628138,-1.7458632
2318,4.004688,-4.1315074,-2.591726
2319,4.301697,-3.6714873,-2.3425734
2320,4.234698,-2.9985058,-1.7458632
2321,3.62393,-2.1194427,-2.4335005
2322,2.548356,-1.0316057,-3.3702908
2323,1.9423738,-0.028115666,-4.290032
2324,0.04516453,1.2343974,-5.104489
2325,-1.9671993,2.257329,-4.615755
2326,-4.2741795,3.0430722,-4.395316
2327,-4.374678,3.3281171,-4.7189455
2328,-4.2308097,3.435794,-5.523831
2329,-3.8356948,3.1722846,-3.7654054
2330,-2.417648,2.3362923,-2.5893333
2331,-0.58983076,0.072681986,-2.8863423
2332,0.86919284,-3.441477,1.4255241
2333,-0.54436713,-9.164511,11.709577
2334,-2.6715865,-16.34627,28.485058
2335,-2.2187448,-24.411875,24.278774
2336,-5.411967,-33.382866,21.506989
2337,-1.8376877,-33.41876,24.551855
2338,1.9974087,-24.054747,12.689138
2339,0.05712864,-14.563915,6.2524457
2340,-2.2737796,-6.936793,4.8655057
2341,-4.417749,-1.8197416,1.7225332
2342,-6.889834,-1.4844474,-1.0058829
2343,-12.301501,-6.114858,0.86261255
2344,-12.205489,-12.559029,1.9166509
2345,-8.52114,-17.809778,4.017549
2346,-4.540082,-21.369402,5.1361938
2347,2.0093727,-20.615065,3.2653055
2348,8.520244,-13.993825,-16.246069
2349,5.4852467,-9.566804,-10.4464655
2350,-0.41964126,-7.4180493,0.00029910283
2351,-2.5492535,-6.625128,6.166304
2352,-1.4880366,-6.4408803,1.238884
2353,2.0715861,-6.117251,-14.926128
2354,0.74207413,-6.431309,-14.231313
2355,-1.1742777,-7.322336,-8.359924
2356,-1.9911275,-8.599206,-4.3737807
2357,-1.4210376,-9.753743,-2.1867409
2358,-0.14656039,-11.322837,0.25902304
2359,1.0103694,-12.714562,3.4331024
2360,1.939981,-13.593625,4.4799623
2361,2.9506495,-13.227224,4.0438704
2362,3.892225,-12.78874,3.73729
2363,4.182056,-11.033006,2.0605195
2364,3.484847,-8.512766,0.55363935
2365,0.92662054,-6.239584,-0.68255264
2366,-0.5922236,-5.1257253,-0.97477615
2367,-1.3034902,-4.095615,0.1680958
2368,-2.0700908,-4.1985064,0.50817573
2369,-1.9671993,-4.531707,-1.0130613
2370,-1.6390835,-4.5819564,-3.2120652
2371,-1.672583,-5.063512,-4.2038903
2372,-1.8690935,-6.344868,-3.3484561
2373,-2.1852453,-8.036295,-2.1532412
2374,-2.582753,-10.517951,0.16091733
2375,-2.8295128,-13.255939,2.9706893
2376,-2.1565313,-14.719748,7.697112
2377,-0.27367908,-14.034503,13.0773735
2378,2.4789643,-12.060723,12.227025
2379,4.8768716,-11.809178,0.92482597
2380,5.9261246,-12.58535,-6.335895
2381,4.927121,-12.98525,-5.253143
2382,1.5469599,-12.918251,2.105983
2383,-1.2317054,-12.654741,9.1103735
2384,1.3313067,-12.326626,6.6717877
2385,6.0457654,-11.610274,-0.28713873
2386,9.856934,-11.696416,-3.6960137
2387,12.060723,-12.820146,-3.4133615
2388,9.979267,-13.986647,0.65653074
2389,3.6861434,-15.754344,6.3508506
2390,-1.1934203,-16.133009,5.023731
2391,-1.8714864,-15.445371,4.386343
2392,-0.034097724,-14.863317,7.7473617
2393,2.8166513,-14.429917,5.1792645
2394,6.1271214,-13.241581,-0.21774685
2395,7.1883383,-11.835499,-3.880261
2396,4.872086,-11.6389885,-5.104489
2397,1.2810575,-13.191332,-3.0900314
2398,-3.0260234,-16.74617,-1.8370895
2399,-5.581857,-19.843678,-4.0241294
2400,-7.2637124,-22.291836,-5.473283
2401,-8.5067835,-22.818853,-3.7510486
2402,-7.3522468,-20.615065,-1.0561321
2403,-5.445466,-17.764315,2.0485554
2404,-4.494319,-16.444374,3.5216367
2405,-4.6836514,-16.288542,2.4029922
2406,-5.2274203,-15.919748,1.0375878
2407,-4.971089,-14.875281,-0.9843474
2408,-5.3856454,-13.303795,-4.668397
2409,-3.2871401,-10.759925,-4.7715874
2410,-0.69272214,-7.7030945,-2.251347
2411,0.18155542,-6.888637,-0.9314062
2412,1.815255,-5.834599,-0.3924229
2413,3.403491,-5.0946183,-1.0226326
2414,4.069593,-4.1793637,-1.6908283
2415,4.8936214,-3.4007993,-2.1652055
2416,4.5747776,-2.751746,-2.3641088
2417,3.611966,-1.7910278,-2.6276183
2418,2.9673991,-1.1467602,-3.0972097
2419,2.0021944,0.180359,-5.7080784
2420,0.7372885,1.1769696,-4.922335
2421,-1.5382859,2.1735802,-4.469793
2422,-3.0738797,3.033501,-3.8778682
2423,-4.2499523,3.4908292,-3.0972097
2424,-4.540082,3.6873398,-2.8671997
2425,-4.9734817,3.5988052,-2.0455642
2426,-3.739982,2.8393831,-0.9939187
2427,-1.1623136,1.8140587,-2.0934207
2428,1.0342976,-2.0928226,-0.6678966
2429,-0.4651049,-7.600203,6.4106708
2430,-2.0413768,-14.1110735,20.968006
2431,-2.2067807,-22.2368,25.112375
2432,-5.598906,-32.506195,24.106194
2433,-4.194917,-36.116367,23.04976
2434,1.1590235,-28.809883,18.4696
2435,2.0380867,-15.246767,8.734401
2436,-1.7754744,-7.765607,5.3159547
2437,-4.2837505,-3.3290145,5.7373905
2438,-7.646863,-3.283551,-1.5927225
2439,-11.839088,-7.9019976,-0.9194421
2440,-14.0357,-15.07897,3.231806
2441,-9.388538,-19.824535,3.4594233
2442,-4.4967117,-20.478374,6.1495543
2443,2.047658,-16.92593,2.6712873
2444,6.7091756,-10.496416,-15.237494
2445,4.874479,-6.3807607,-11.052447
2446,0.0041874396,-5.5710893,-1.925624
2447,-2.0892332,-5.6503515,3.3397822
2448,-0.23748764,-6.2180486,-3.6023946
2449,2.0811574,-6.757032,-14.126028
2450,0.96729857,-7.5260253,-13.435998
2451,-0.3909274,-8.299805,-8.292925
2452,-0.06520442,-9.349057,-3.6864424
2453,0.5937191,-10.472487,-0.76630145
2454,2.047658,-11.912069,2.6042883
2455,2.9315069,-13.390236,5.4092746
2456,3.5904303,-13.840385,4.8248277
2457,4.5747776,-13.593625,3.9361932
2458,4.289733,-12.578172,2.9012976
2459,2.8310082,-9.775279,0.6879365
2460,0.44985065,-7.1688967,-0.9098708
2461,-2.5612175,-5.4346986,-0.55782676
2462,-3.3804603,-4.1147575,0.4004987
2463,-4.5879383,-4.0908294,0.91525465
2464,-4.154239,-4.5915275,-0.15792629
2465,-2.8749764,-4.9698925,-3.025126
2466,-1.5143577,-5.374878,-5.1643095
2467,-1.1670992,-6.416952,-5.2794642
2468,-1.076172,-7.899605,-3.5617166
2469,-1.2628121,-8.932108,-2.0527427
2470,-1.7970098,-11.353944,1.5191432
2471,-2.6883361,-13.615161,4.1276193
2472,-2.7003005,-14.302798,6.3221364
2473,-1.2364911,-12.999607,10.933405
2474,0.8883354,-10.520344,9.225528
2475,2.8932216,-9.98136,0.82911307
2476,3.9951165,-11.464013,-4.239783
2477,3.484847,-13.960325,-0.8452646
2478,1.9423738,-14.281262,4.328915
2479,2.3135605,-13.804493,5.871688
2480,5.8827543,-12.915858,4.18056
2481,9.514461,-12.48216,1.8017955
2482,11.236695,-12.5348015,-1.2215359
2483,9.782756,-12.949358,-2.2561326
2484,4.7162533,-14.053645,2.3575284
2485,-0.58265233,-15.730416,7.1102724
2486,-2.0700908,-15.883856,4.9639106
2487,0.05712864,-15.100506,4.261916
2488,3.0323045,-13.663317,5.986543
2489,4.5798626,-13.073785,5.3973107
2490,5.439783,-12.340982,1.3154542
2491,4.766503,-11.351551,-3.6505501
2492,3.2237303,-10.86521,-5.770591
2493,1.8487546,-11.8283205,-4.8385863
2494,-0.25692934,-15.476478,-3.583252
2495,-2.1924238,-18.200407,-3.6960137
2496,-5.110172,-21.563519,-3.693621
2497,-7.488937,-23.225933,-2.088635
2498,-8.066205,-21.719353,1.6698911
2499,-7.3522468,-19.505692,3.1695926
2500,-6.477969,-17.740387,1.3992031
2501,-5.9844494,-16.315163,-0.8596215
2502,-5.7376895,-14.844174,-1.0872388
2503,-5.067101,-13.253546,-0.84765744
2504,-4.5206404,-11.459228,-2.579762
2505,-2.7338,-9.55484,-3.9284165
2506,-0.18484555,-7.5786676,-2.102992
2507,1.1638091,-6.747461,-0.64875406
2508,1.7937196,-6.033502,-0.38524446
2509,2.862115,-5.0682974,-0.77587277
2510,3.5904303,-4.5747776,-1.5376877
2511,3.7674992,-4.3351965,-1.9351953
2512,2.914757,-4.0405803,-1.6764714
2513,2.1003,-3.460919,-1.9160527
2514,1.6884354,-2.224727,-2.5965116
2515,0.8428718,-0.64845496,-4.6875396
2516,-0.081954174,0.6092725,-4.371388
2517,-1.5191432,1.5768701,-3.8997028
2518,-2.4559333,2.449054,-3.8204405
2519,-3.5339,3.3999019,-2.8408787
2520,-3.9816568,3.603591,-1.422533
2521,-3.9696927,3.4597225,-0.47168517
2522,-1.0160524,3.3616166,-0.87158567
2523,-0.41006997,1.34686,-3.1905298
2524,0.26291138,-2.4212375,-0.61764735
2525,-1.061815,-8.362018,8.11137
2526,-2.077269,-15.608382,21.28685
2527,-1.4306089,-21.295225,25.026234
2528,-4.6669016,-31.991142,23.775684
2529,-2.012663,-34.508987,24.676283
2530,2.6656044,-27.655346,16.881363
2531,2.2680967,-19.838892,9.249456
2532,-1.4473586,-7.094719,5.0883374
2533,-3.5099716,-3.0966115,2.484348
2534,-7.1581287,-2.018645,-2.00698
2535,-11.115559,-5.643173,-0.26081768
2536,-10.844871,-11.746665,-5.3943195
2537,-8.2456665,-15.893427,-1.1805589
2538,-6.18096,-20.37309,1.3106686
2539,-0.32392836,-19.81257,-0.8979067
2540,3.8730826,-14.717355,-8.441579
2541,1.0199406,-10.5538435,-6.4627147
2542,-1.1718849,-8.038688,1.0543375
2543,-0.96819586,-7.561918,1.6196418
2544,1.5278172,-6.7689962,-9.485747
2545,2.2872393,-6.4480586,-14.3823595
2546,1.3842479,-7.0492554,-11.553146
2547,0.20787647,-8.476873,-5.372784
2548,0.23898315,-9.430413,-2.7185457
2549,0.7827521,-10.949257,-0.85483587
2550,1.041476,-12.434303,1.2293127
2551,1.4392828,-13.117155,2.582753
2552,3.039483,-13.114761,3.289234
2553,3.8898323,-12.491731,3.1600213
2554,3.8347974,-10.273584,1.7081763
2555,2.864508,-8.065009,0.062512495
2556,0.27966115,-6.4648085,-0.8859426
2557,-0.19920248,-5.278866,-0.11934203
2558,-0.8676973,-4.502694,0.68075806
2559,-1.5936198,-4.502694,0.52253264
2560,-1.971985,-4.802395,-1.1063814
2561,-2.5731816,-5.0802617,-3.3702908
2562,-2.9590242,-6.0215383,-3.731906
2563,-3.3230324,-7.502097,-2.510071
2564,-3.4283166,-9.4280205,-0.17467605
2565,-3.423531,-11.6389885,1.8831514
2566,-3.3565319,-13.359129,3.7995033
2567,-1.3683954,-13.222439,6.5928245
2568,0.72053874,-12.194721,8.6192465
2569,2.7014968,-10.934601,7.6683984
2570,4.5675993,-11.531311,-0.05712864
2571,5.621638,-12.58535,-2.7233312
2572,5.9452667,-12.695419,-0.76630145
2573,4.3594236,-12.537194,4.582854
2574,0.94337034,-12.254542,6.9999037
2575,0.3589234,-12.146865,5.0452666
2576,2.9195428,-11.835499,0.46749774
2577,5.669793,-11.7876425,-2.8983064
2578,7.2003026,-13.0355,-2.1652055
2579,7.4853473,-13.898112,0.48185465
2580,4.028616,-14.528023,5.265705
2581,-0.64247286,-14.829818,6.6502523
2582,-3.0212376,-14.420047,4.1590247
2583,-1.3875381,-13.63221,3.8425741
2584,1.6716857,-13.167404,5.1673007
2585,4.357031,-12.901502,3.3469608
2586,7.880761,-11.907284,-0.8021938
2587,9.929018,-11.251052,-2.1652055
2588,7.543074,-12.537194,-4.031308
2589,4.4671006,-14.937494,-4.642076
2590,1.7985053,-17.539091,-5.1092744
2591,-2.1661026,-21.209084,-4.0504503
2592,-6.113662,-23.987747,-2.838486
2593,-8.332108,-23.583061,-0.8979067
2594,-8.629117,-20.705992,1.0710872
2595,-8.478069,-20.044676,1.3944174
2596,-6.5521464,-16.758133,0.37627137
2597,-6.1713886,-15.984354,-0.12891331
2598,-5.622834,-14.803496,0.65653074
2599,-5.8214383,-13.445271,0.29970104
2600,-6.365207,-12.18515,-2.6084757
2601,-4.334,-9.976575,-5.22413
2602,-0.86530447,-6.902994,-3.9978085
2603,0.51206404,-5.875576,-2.8337002
2604,1.6187445,-4.898108,-2.2728825
2605,1.6187445,-4.898108,-2.2728825
2606,4.5894337,-4.3375893,-3.1953156
2607,4.857729,-3.891926,-2.754438
2608,4.345067,-3.5757744,-2.198705
2609,3.460919,-2.6222346,-2.333002
2610,2.2130618,-1.5155541,-2.958127
2611,0.72293156,-0.43040898,-4.6229334
2612,-1.2029916,0.39840496,-4.4315076
2613,-3.3373895,1.4045869,-4.280461
2614,-4.9495535,2.5878377,-3.839583
2615,-5.246563,3.7881374,-2.984448
2616,-4.65733,4.156931,-2.5558336
2617,-3.315854,3.7208393,-3.0586255
2618,-1.5382859,2.286043,-4.627719
2619,-1.5382859,2.286043,-4.627719
2620,0.55513483,-4.790132,4.034299
2621,-0.29042885,-10.700105,16.133905
2622,-2.053341,-18.81596,28.518856
2623,-2.513361,-28.132116,26.300411
2624,-4.7339005,-36.087357,23.926432
2625,3.60718,-32.08446,19.61935
2626,4.9773703,-20.468803,11.045868
2627,2.4308088,-12.067902,6.722037
2628,0.33738798,-7.346265,4.4775696
2629,-2.94706,-1.7718852,4.2499523
2630,-6.710372,-1.6163517,-1.1398809
2631,-12.68226,-7.396514,-3.025126
2632,-13.853546,-14.1688,3.5096726
2633,-8.430213,-16.593029,2.3312075
2634,-2.2546372,-18.664913,0.029012974
2635,0.4426722,-17.510378,3.3373895
2636,4.299304,-13.059428,-10.317253
2637,3.2814572,-9.190832,-9.057133
2638,-1.5669997,-7.4252276,-0.3589234
2639,-3.3517463,-6.4408803,3.7995033
2640,-1.6247265,-6.213263,-2.4358935
2641,1.0079765,-6.026324,-12.861122
2642,1.0199406,-6.047859,-13.687544
2643,-0.6233303,-6.7235327,-9.382855
2644,-1.5358931,-7.5379896,-7.1021967
2645,-0.65922266,-9.61496,-1.9016958
2646,1.0271192,-10.9684,-0.16510476
2647,3.0969107,-12.877573,1.5335002
2648,4.0310087,-13.625031,1.6938193
2649,4.831109,-14.1110735,1.9357935
2650,4.9845486,-14.029717,1.9070797
2651,3.7941194,-12.5348015,1.3776677
2652,1.9040886,-10.486844,0.07208378
2653,-0.13459627,-7.9833536,0.110368945
2654,-1.7754744,-6.1124654,-0.36610186
2655,-2.4248266,-4.603492,0.9176475
2656,-3.8476589,-4.1339,1.4784653
2657,-3.7109687,-4.24397,0.35473597
2658,-3.19382,-4.0884366,-1.925624
2659,-2.4367907,-4.208078,-3.9044883
2660,-2.4367907,-5.130511,-3.257529
2661,-2.2594228,-6.6035924,-1.3124632
2662,-2.1804597,-8.546564,-0.097806625
2663,-2.0988045,-10.558629,0.23988047
2664,-2.0629122,-13.651352,2.1921246
2665,-0.19920248,-15.852749,7.4455667
2666,0.7396813,-15.570097,10.667502
2667,1.2930216,-15.023935,11.889038
2668,3.0035906,-12.683455,12.559926
2669,4.5340996,-12.326626,-6.465108
2670,2.9362924,-13.93879,-0.097806625
2671,1.4416757,-13.917254,6.0729837
2672,2.0644078,-13.356736,7.6803627
2673,5.159524,-12.633206,4.0103707
2674,8.309376,-12.137294,-1.2861422
2675,10.496715,-12.443874,-4.4168515
2676,9.495318,-13.826028,-1.9758734
2677,4.098307,-15.277873,5.229813
2678,-1.265205,-16.391733,7.3522468
2679,-3.3565319,-16.530516,5.299205
2680,-1.7850457,-16.365412,8.113763
2681,1.6525432,-15.589239,7.8239317
2682,4.2107697,-14.408082,2.4532413
2683,7.502097,-11.674881,-3.5617166
2684,6.4962144,-10.7431755,-5.5262237
2685,3.9783669,-11.246266,-5.6985073
2686,0.55752766,-14.010574,-3.3029926
2687,-2.923132,-18.03979,-3.2982068
2688,-5.1771708,-21.05325,-4.4339004
2689,-7.6277204,-22.574488,-3.7941194
2690,-7.6947193,-20.751455,-0.58654064
2691,-6.1977096,-18.011076,1.9716859
2692,-5.2441697,-16.327126,2.2351954
2693,-5.2106705,-15.6466675,0.3909274
2694,-5.7041903,-15.201004,-0.44057846
2695,-6.2407804,-13.953147,-1.151845
2696,-6.1881385,-12.077474,-3.135495
2697,-3.7447674,-9.849456,-3.7127635
2698,-1.2891332,-7.453942,-2.7496524
2699,0.25812575,-5.8827543,-1.8083757
2700,2.0787647,-5.2310095,-1.8921245
2701,2.0787647,-5.2310095,-1.8921245
2702,4.6636114,-4.471587,-2.5507488
2703,4.790431,-4.086044,-2.3904297
2704,4.455137,-3.566203,-1.0680962
2705,3.499204,-2.9048867,-1.7458632
2706,2.4020948,-1.6833507,-3.3460634
2707,1.2643076,-0.43280178,-5.7631135
2708,-0.328714,0.31226337,-5.22413
2709,-1.9767706,1.3444673,-4.625326
2710,-3.1432717,2.4418755,-4.199105
2711,-3.696612,3.0311081,-3.2647073
2712,-5.4957156,3.0526435,-2.62044
2713,-2.5612175,2.94706,-0.15553348
2714,-0.66400826,2.4658036,1.0663016
2715,-0.41485563,0.33379877,-1.3100704
2716,-0.41485563,0.33379877,-1.3100704
2717,-0.25214368,-4.8358946,2.8725836
2718,-3.0595229,-12.899109,16.957933
2719,-2.6907291,-22.265514,22.431814
2720,-2.134996,-28.625637,20.68296
2721,-1.8714864,-34.647774,21.380169
2722,3.4561331,-26.184359,17.906689
2723,3.4561331,-26.184359,17.906689
2724,0.7827521,-10.987542,6.0490556
2725,-1.7347964,-4.3375893,4.87747
2726,-4.552046,-1.692922,0.19441684
2727,-10.6459675,-5.1664033,-2.2680967
2728,-14.24896,-12.139687,2.3886352
2729,-10.516754,-17.625233,3.0690942
2730,-5.023731,-21.103498,2.2495525
2731,-1.4114662,-20.615065,2.472384
2732,3.85394,-14.461023,-8.937193
2733,4.438387,-8.22772,-12.74866
2734,-0.2856432,-5.5016975,-2.4263222
2735,-3.7663028,-5.089833,4.968696
2736,-3.478865,-5.942575,1.8568304
2737,0.21266212,-6.4289165,-8.815159
2738,1.2571292,-6.1701922,-16.753946
2739,-0.35503507,-6.680462,-12.094522
2740,-1.3660027,-7.887641,-6.316753
2741,-1.2580265,-8.649456,-4.4602213
2742,0.3397808,-10.829317,-1.178166
2743,2.0907288,-12.484552,1.5382859
2744,3.7244284,-13.493127,3.01376
2745,5.0395837,-14.020146,3.2102706
2746,6.4241304,-13.452449,2.8893332
2747,5.0754757,-11.720345,2.6832514
2748,3.3293135,-9.190832,1.2005987
2749,1.1494522,-6.7522464,0.19441684
2750,0.1576272,-5.1903315,0.44835514
2751,-1.006481,-4.0764723,1.2005987
2752,-2.8701909,-3.9927237,1.2221341
2753,-3.1313076,-3.772285,-1.0944172
2754,-3.0810583,-3.7049868,-3.2814572
2755,-3.0738797,-4.2272205,-4.2948174
2756,-2.882155,-5.762814,-3.065804
2757,-2.8390841,-7.339086,-2.0312073
2758,-3.2871401,-10.639985,-1.2454642
2759,-3.696612,-14.348262,1.7491534
2760,-3.1695926,-16.581064,7.0286174
2761,-1.1551352,-15.867106,12.576675
2762,1.1422737,-13.373486,12.789936
2763,3.3029926,-11.040185,4.0007997
2764,4.5675993,-11.837892,-4.4674
2765,4.6396832,-13.176975,-3.0825539
2766,2.6105695,-13.203297,3.6391842
2767,2.033301,-13.129119,7.5867434
2768,4.7425747,-12.657134,5.500501
2769,8.481958,-12.240185,0.6517451
2770,10.755439,-12.676277,-2.80708
2771,10.927722,-13.246367,-2.646761
2772,6.3308105,-14.053645,2.484348
2773,2.1771696,-15.198611,6.602396
2774,-1.7084754,-15.776178,5.8214383
2775,-0.8102696,-15.294623,5.143372
2776,2.0955145,-13.926826,4.3935213
2777,4.642076,-13.220046,1.3489537
2778,5.8971114,-12.616456,-1.5137594
2779,5.3533425,-12.034403,-2.5387847
2780,2.7975087,-12.67867,-1.6597216
2781,-1.006481,-15.215361,-1.6022938
2782,-3.842873,-18.375084,-4.3522453
2783,-5.189135,-20.80649,-5.8136616
2784,-7.2996044,-22.787746,-5.456533
2785,-7.6085777,-21.494127,-2.5941188
2786,-5.9748783,-18.274584,0.7716853
2787,-5.2202415,-16.624136,3.1600213
2788,-5.198706,-16.367804,3.2676985
2789,-5.871987,-16.149757,1.1404791
2790,-5.994021,-15.244374,-1.1566306
2791,-6.75105,-13.6968155,-2.8094728
2792,-6.7295146,-12.228221,-4.4458647
2793,-2.1708884,-8.790632,-3.705585
2794,0.13369897,-6.70439,-2.0694926
2795,0.7683952,-6.0119667,-1.1087742
2796,1.7673986,-5.6527443,-1.1853445
2797,3.6335013,-5.029713,-2.021636
2798,4.060022,-4.5074797,-2.3569303
2799,4.512564,-3.9086757,-1.6238292
2800,3.1232316,-2.9530423,-2.5893333
2801,2.728117,-2.1000009,-3.2766714
2802,1.5373886,-0.7728817,-5.45414
2803,-0.046061836,0.39361933,-4.682754
2804,-1.6701902,1.4069797,-4.194319
2805,-2.8606195,2.609373,-3.9619162
2806,-3.2273195,3.181856,-3.336492
2807,-3.6032917,3.6227336,-3.8180475
2808,-3.5243287,3.5940197,-2.3258235
2809,-3.0020952,3.292225,-0.7902297
2810,-1.0642079,2.2740788,-2.6539395
2811,1.1733804,-0.030508488,-1.547259
2812,0.64636123,-4.800002,5.4643097
2813,-0.48903313,-11.737094,21.444777
2814,-1.3058829,-18.18605,28.068407
2815,-3.2703903,-26.989244,24.918257
2816,-4.4727836,-35.26572,27.699614
2817,1.5086746,-30.984959,20.912971
2818,2.3087747,-17.127226,8.41795
2819,-0.75972116,-10.297512,7.3713894
2820,-5.581857,-5.003392,3.1576285
2821,-8.859127,-4.6896334,-3.8371902
2822,-11.680862,-8.210971,-1.3531412
2823,-11.03181,-11.560025,-7.1886373
2824,-10.672288,-14.135001,0.14177474
2825,-8.04467,-16.904394,12.540784
2826,1.2906287,-17.012072,5.8190455
2827,6.5608206,-13.028321,-14.317454
2828,3.5401812,-9.689137,-12.667005
2829,-0.5802595,-8.359625,-3.9188452
2830,-1.3779668,-7.8206415,3.3876386
2831,0.7827521,-8.129615,-2.5411777
2832,3.1758738,-7.8661056,-12.037094
2833,1.6716857,-8.04108,-12.128021
2834,0.7181459,-8.460124,-8.352746
2835,-0.20638095,-9.361021,-4.0145583
2836,-0.012562319,-10.644771,-1.192523
2837,0.5168497,-11.430513,-0.023629123
2838,1.463211,-12.295519,1.3393825
2839,2.5579274,-12.870395,2.8582265
2840,4.1437707,-12.681063,3.6990047
2841,4.282554,-11.277373,2.8869405
2842,3.1639097,-8.773883,0.99930257
2843,1.2116655,-6.690033,-0.83090764
2844,-1.0280164,-5.259723,-0.20817557
2845,-1.8786649,-4.160221,1.0663016
2846,-2.1900308,-3.6020954,1.0016954
2847,-2.556432,-3.5159538,-0.31106696
2848,-2.786442,-3.621238,-3.7271204
2849,-3.2392836,-3.8847475,-6.826723
2850,-3.519543,-5.003392,-5.2890353
2851,-3.5386856,-6.9344,-1.5400804
2852,-3.5075788,-9.600304,1.4590236
2853,-3.4597225,-12.839288,4.2427735
2854,-2.542075,-15.201004,5.239384
2855,-0.8461619,-15.819249,6.4106708
2856,2.289632,-14.094323,9.807582
2857,3.7387853,-12.453445,7.3809605
2858,4.88405,-11.778071,0.2542374
2859,4.615755,-12.707384,-3.813262
2860,2.914757,-13.871492,-0.1698904
2861,1.1470593,-13.735101,6.1184473
2862,2.169991,-13.337295,6.331708
2863,5.2624154,-12.736097,1.4446666
2864,8.115557,-12.460624,-2.321038
2865,10.27149,-13.521841,-2.4502504
2866,10.096515,-14.379369,-0.77587277
2867,4.0959144,-15.751951,5.2008
2868,-0.4316054,-16.35584,7.7234335
2869,-4.173382,-15.548561,4.7171507
2870,-1.5669997,-14.568701,4.144668
2871,2.6656044,-13.263117,4.551747
2872,5.8133626,-12.451053,4.063013
2873,7.518847,-11.708381,-0.0212363
2874,7.9094753,-11.111969,-2.481357
2875,6.869794,-11.157433,-3.475575
2876,3.3197422,-13.4022,-3.2383864
2877,2.5028925,-14.242978,-3.176173
2878,-2.9949167,-19.74288,-4.3259244
2879,-5.81426,-22.974388,-5.792126
2880,-6.908976,-22.40669,-2.6252255
2881,-6.247959,-19.637596,2.1107686
2882,-5.569893,-17.33301,2.2809582
2883,-5.1867423,-16.456339,0.8171489
2884,-5.4670014,-16.025032,-0.018843478
2885,-6.6622167,-15.203397,-0.5697909
2886,-7.5607214,-13.912469,-2.6898317
2887,-5.8935223,-11.473584,-2.524428
2888,-3.5697923,-8.5271225,-2.4239295
2889,-1.5984055,-6.716354,-1.4584254
2890,-0.59700924,-5.9760747,-0.98674023
2891,2.1843479,-4.7303114,-1.2693924
2892,5.3967123,-4.107579,-2.5316064
2893,5.415855,-3.8584266,-2.455036
2894,4.7880383,-3.621238,-2.2609184
2895,4.1724844,-3.0559337,-2.2947168
2896,3.391527,-2.3778675,-2.9341989
2897,2.2848465,-1.2664014,-4.6564326
2898,0.33738798,0.122931264,-5.3679986
2899,-0.9275179,1.0331012,-4.6372905
2900,-0.9275179,1.0331012,-4.6372905
2901,-2.0365913,1.9938195,-3.367898
2902,-3.1576285,2.7293134,-3.6023946
2903,-3.2368908,2.9327033,-2.3018954
2904,-2.6306095,2.7317061,-0.5099703
2905,-2.1517458,1.7327027,-3.4396825
2906,-0.4459623,-0.09032906,-3.6864424
2907,-2.3814569,-4.519444,2.3838496
2908,-4.6549373,-9.475877,10.0014
2909,-5.502894,-16.530516,22.613968
2910,-3.7328033,-27.145077,25.07409
2911,-5.337789,-36.13551,29.04827
2912,-0.28085756,-34.906498,26.08745
2913,3.3747773,-24.42384,13.472488
2914,1.5493526,-13.81885,5.936294
2915,-2.5396821,-5.956932,7.210771
2916,-5.8863435,-3.0846474,0.60388863
2917,-11.72872,-5.6671014,-5.9261246
2918,-13.240385,-9.7298155,-8.7577305
2919,-10.267602,-10.872388,-2.5965116
2920,-7.728219,-12.793526,5.8094745
2921,-5.649155,-15.603597,9.057731
2922,4.107878,-15.713666,-8.894122
2923,5.71765,-13.296617,-13.644473
2924,1.4703895,-11.935998,-5.645865
2925,-0.12023934,-10.936995,5.7927246
2926,2.0500507,-10.326226,-1.1446666
2927,5.0252266,-8.920144,-12.5138645
2928,3.6957145,-7.873284,-11.629716
2929,1.9878374,-7.288837,-7.6510506
2930,1.4440684,-7.262516,-5.1906304
2931,1.0055838,-8.069795,-2.8118658
2932,0.64875406,-9.573982,-0.5099703
2933,1.1470593,-10.985149,2.3048863
2934,1.6980067,-11.583954,3.0640094
2935,2.874079,-11.775679,3.49053
2936,3.1208389,-10.802996,2.879762
2937,2.1481566,-9.23151,2.0365913
2938,0.6439684,-7.4324064,0.51056856
2939,-1.6486548,-5.836992,0.6903293
2940,-2.5707889,-4.8765726,1.5837495
2941,-3.1360931,-4.5747776,2.1705892
2942,-3.2703903,-4.692026,1.346561
2943,-2.50379,-4.6585264,-0.8356933
2944,-1.7730815,-5.0177493,-3.676871
2945,-1.5406786,-5.679065,-4.3857446
2946,-1.5454643,-6.450452,-3.3966117
2947,-1.6893328,-7.8206415,-1.2239288
2948,-1.727618,-9.717851,-0.033200413
2949,-2.120639,-12.841681,3.0667014
2950,-2.434398,-14.247764,5.9578295
2951,-1.3803595,-13.845171,8.0252285
2952,0.020937199,-12.032009,5.7349977
2953,1.7673986,-11.116755,0.3188436
2954,3.4872398,-11.195718,-1.9902302
2955,4.256233,-11.59831,-0.6873383
2956,3.0418758,-12.716955,2.9036903
2957,1.625923,-13.787744,5.81426
2958,2.414059,-13.773386,3.9577286
2959,5.08744,-13.787744,-0.6678966
2960,9.260523,-13.493127,-2.4502504
2961,10.834402,-13.799707,-0.27756742
2962,7.693822,-15.01915,3.9768713
2963,1.925624,-16.719849,5.394918
2964,-0.762114,-17.625233,4.470391
2965,-1.2795619,-16.851753,4.887041
2966,0.76600236,-16.099508,6.1040907
2967,2.8836503,-15.543776,4.9567323
2968,5.358128,-13.883456,2.3431716
2969,5.252844,-11.092827,-2.4311078
2970,3.0442686,-10.115358,-3.5880375
2971,0.33260235,-10.419846,-3.1187453
2972,-1.5000007,-12.846467,-3.952345
2973,-3.112165,-16.360626,-3.9858444
2974,-5.296812,-19.977676,-3.638586
2975,-7.318747,-22.826033,-3.0011978
2976,-7.821838,-23.039293,-0.87158567
2977,-6.2958155,-19.764416,3.0089746
2978,-5.189135,-17.175083,2.7670002
2979,-4.484748,-15.570097,0.77647096
2980,-4.1662035,-14.429917,-0.42382872
2981,-4.4967117,-13.497912,-1.3938192
2982,-5.747261,-12.563814,-3.2192438
2983,-2.4918256,-9.349057,-3.2790644
2984,-1.4569299,-7.650452,-1.8323039
2985,0.17437695,-6.8982086,-1.1398809
2986,1.7171494,-6.5054865,-1.5544374
2987,3.37717,-5.817849,-2.5316064
2988,4.888836,-5.195117,-3.0227332
2989,5.0994043,-4.6633124,-2.9676983
2990,4.979763,-4.560421,-2.778366
2991,4.979763,-4.560421,-2.778366
2992,1.9495523,-2.4308088,-3.595216
2993,0.9912268,-1.556232,-4.4817567
2994,0.2748755,-0.526421,-4.503292
2995,-0.369392,0.27367908,-4.2182474
2996,-0.85812604,0.5084748,-4.1461635
2997,-2.8869405,2.6141586,-3.2336006
2998,-4.5134616,3.9077785,-0.8333005
2999,-4.3483567,4.5017967,0.8961121
3000,-2.1421745,3.9317067,-2.0479572
3001,0.31345975,1.6561323,-2.5845475
3002,-0.27367908,-2.725425,2.1634107
3003,-1.2628121,-8.429017,13.851153
3004,-0.22791636,-15.55574,23.088047
3005,-1.4018949,-23.211576,23.751757
3006,-7.498508,-30.817461,26.293232
3007,-5.59412,-32.019855,24.985256
3008,-0.965803,-24.881468,11.364711
3009,1.0582259,-14.743676,5.514858
3010,-2.0892332,-7.650452,4.7506504
3011,-6.6358953,-4.95075,-1.1422737
3012,-11.324033,-7.3079796,-2.0934207
3013,-11.309676,-10.623236,-4.8266225
3014,-8.468498,-12.815061,6.209375
3015,-4.8179483,-15.816856,7.605886
3016,0.9026923,-16.188044,-2.158027
3017,4.9199424,-12.899109,-14.149957
3018,0.4977071,-10.436595,-9.720543
3019,-2.7960134,-8.893823,3.409174
3020,-2.4296124,-8.651849,5.445167
3021,0.8066803,-7.7054873,-10.092029
3022,2.8525436,-6.4935226,-15.156138
3023,1.9351953,-7.5667033,-9.972089
3024,1.1135598,-8.488837,-7.5957165
3025,1.2523435,-10.807781,-3.4253256
3026,2.0955145,-12.317055,-0.9819546
3027,2.835794,-13.945969,2.0294127
3028,2.9772696,-14.7508545,2.7622147
3029,3.5593238,-14.88246,2.566003
3030,4.2969112,-14.231013,2.664109
3031,4.0094733,-12.242578,1.7467605
3032,-2.3048863,-3.2165518,1.4279169
3033,-2.3048863,-3.2165518,1.4279169
3034,-2.3048863,-3.2165518,1.4279169
3035,-2.3048863,-3.2165518,1.4279169
3036,-3.313461,-4.0094733,-2.0093727
3037,-3.313461,-4.0094733,-2.0093727
3038,-3.313461,-4.0094733,-2.0093727
3039,-3.521936,-4.601099,-3.077768
3040,-3.8356948,-10.163514,1.4808581
3041,-3.8356948,-10.163514,1.4808581
3042,-3.8356948,-10.163514,1.4808581
3043,-3.4716866,-12.637992,4.2978086
3044,-2.8677979,-12.793526,4.7434716
3045,-0.4316054,-11.888141,5.5866427
3046,1.6334006,-11.100005,5.526822
3047,5.3772707,-13.196117,1.8017955
3048,5.3772707,-13.196117,1.8017955
3049,5.3772707,-13.196117,1.8017955
3050,5.3772707,-13.196117,1.8017955
3051,0.7851449,-13.085749,6.7579293
3052,0.7827521,-12.923037,6.6095743
3053,2.4861426,-12.832109,2.3838496
3054,9.104691,-15.157933,1.6651055
3055,9.104691,-15.157933,1.6651055
3056,9.104691,-15.157933,1.6651055
3057,3.4513476,-16.32234,7.373782
3058,0.78753775,-16.731812,7.0166535
3059,-1.7682959,-15.562919,3.152843
3060,-0.11784652,-14.901602,4.7339005
3061,2.4188447,-13.663317,4.4871407
3062,1.43689,-12.384053,-2.6371896
3063,1.43689,-12.384053,-2.6371896
3064,1.43689,-12.384053,-2.6371896
3065,1.43689,-12.384053,-2.6371896
3066,-0.66161543,-14.918352,-3.6000016
3067,-6.283851,-21.982862,-1.5137594
3068,-6.283851,-21.982862,-1.5137594
3069,-6.283851,-21.982862,-1.5137594
3070,-6.283851,-21.982862,-1.5137594
3071,-4.9136615,-18.995722,2.3048863
3072,-4.377071,-17.11287,1.8113668
3073,-4.377071,-17.11287,1.8113668
3074,-3.0690942,-10.460524,-3.4660037
3075,-3.0690942,-10.460524,-3.4660037
3076,-3.0690942,-10.460524,-3.4660037
3077,-3.0690942,-10.460524,-3.4660037
3078,0.48095736,-6.795317,-0.6559325
3079,0.48095736,-6.795317,-0.6559325
3080,0.48095736,-6.795317,-0.6559325
3081,3.554538,-3.0702906,-2.9892337
3082,3.554538,-3.0702906,-2.9892337
3083,3.554538,-3.0702906,-2.9892337
3084,3.554538,-3.0702906,-2.9892337
3085,3.2766714,-2.3108685,-3.8491542
3086,-1.931307,2.8178477,-5.4900327
3087,-1.931307,2.8178477,-5.4900327
3088,-1.931307,2.8178477,-5.4900327
3089,-1.931307,2.8178477,-5.4900327
3090,-2.5348964,3.3687952,-4.364209
3091,-3.723232,3.9460638,-3.3702908
3092,-0.4962116,1.2176477,-2.819044
3093,-0.4962116,1.2176477,-2.819044
3094,-0.4962116,1.2176477,-2.819044
3095,-0.4962116,1.2176477,-2.819044
3096,-3.7710886,-29.720352,25.174587
3097,-3.7710886,-29.720352,25.174587
3098,-3.7710886,-29.720352,25.174587
3099,-3.7710886,-29.720352,25.174587
3100,-3.7710886,-29.720352,25.174587
3101,-6.235995,-39.817165,31.532318
3102,2.0093727,-33.543484,22.968405
3103,3.583252,-30.402905,18.816858
3104,-1.483251,-7.5786676,4.566104
3105,-1.483251,-7.5786676,4.566104
3106,-5.241777,0.6643074,0.75493556
3107,-10.602897,-4.435695,-9.483355
3108,-8.550154,-9.085547,1.6938193
3109,-8.550154,-9.085547,1.6938193
3110,-8.791828,-10.525129,6.3460646
3111,-1.7108682,-20.857038,7.934301
3112,6.3068824,-19.793428,-13.455141
3113,6.3068824,-19.793428,-13.455141
3114,3.8443687,-6.3711896,-13.155739
3115,3.8443687,-6.3711896,-13.155739
3116,3.8443687,-6.3711896,-13.155739
3117,3.8443687,-6.3711896,-13.155739
3118,3.8108692,-6.2491555,-13.129417
3119,1.8678972,-6.7235327,-6.261419
3120,1.8678972,-6.7235327,-6.261419
3121,1.1614163,-7.1377897,-3.7630126
3122,-0.02213361,-10.5682,-0.59611195
3123,-0.02213361,-10.5682,-0.59611195
3124,-0.02213361,-10.5682,-0.59611195
3125,0.69182485,-9.629316,1.9525433
3126,0.69182485,-9.629316,1.9525433
3127,0.69182485,-9.629316,1.9525433
3128,0.69182485,-9.629316,1.9525433
3129,-0.6759724,-7.990532,1.0423734
3130,-2.5851457,-6.163014,0.42921257
3131,-2.5851457,-6.163014,0.42921257
3132,-2.5851457,-6.163014,0.42921257
3133,-2.5851457,-6.163014,0.42921257
3134,-2.1445673,-4.8646083,-3.4133615
3135,-2.2761726,-4.8358946,-6.108278
3136,-2.5253253,-5.549554,-4.9175496
3137,-2.5516462,-6.5485573,-3.188137
3138,-2.2785654,-8.611171,-0.96520483
3139,-2.312065,-13.033107,3.0185459
3140,-2.105983,-13.574483,3.559922
3141,0.6870392,-14.61895,7.7904325
3142,2.2058833,-13.607983,10.784751
3143,-0.49860442,-14.094323,4.082155
3144,-0.49860442,-14.094323,4.082155
3145,-0.49860442,-14.094323,4.082155
3146,-0.49860442,-14.094323,4.082155
3147,8.838788,-12.522838,-0.91465646
3148,8.838788,-12.522838,-0.91465646
3149,8.838788,-12.522838,-0.91465646
3150,8.786145,-14.082359,0.94666046
3151,8.786145,-14.082359,0.94666046
3152,8.786145,-14.082359,0.94666046
3153,-1.0570294,-15.41905,6.013163
3154,-2.1107686,-15.644275,4.721936
3155,-0.14416756,-16.312769,6.6885376
3156,3.2982068,-15.404693,7.713862
3157,3.2982068,-15.404693,7.713862
3158,6.390631,-11.873784,-3.2216365
3159,6.390631,-11.873784,-3.2216365
3160,5.319843,-11.562418,-4.6875396
3161,-1.0040882,-16.530516,-4.3211384
3162,-1.0040882,-16.530516,-4.3211384
3163,-8.777472,-24.914967,-2.8959136
3164,-8.777472,-24.914967,-2.8959136
3165,-7.9965143,-22.529024,0.6158527
3166,-4.5592246,-15.411872,-1.1614163
3167,-4.5592246,-15.411872,-1.1614163
3168,-4.5592246,-15.411872,-1.1614163
3169,-4.5592246,-15.411872,-1.1614163
3170,-5.9174504,-14.453845,-3.583252
3171,-4.9256253,-11.928819,-4.534399
3172,-4.9256253,-11.928819,-4.534399
3173,2.495714,-4.430909,-2.3186452
3174,2.495714,-4.430909,-2.3186452
3175,2.495714,-4.430909,-2.3186452
3176,2.495714,-4.430909,-2.3186452
3177,4.0887356,-2.3754747,-1.5711871
3178,4.0887356,-2.3754747,-1.5711871
3179,4.0887356,-2.3754747,-1.5711871
3180,4.0887356,-2.3754747,-1.5711871
3181,-2.6401806,1.5816557,-5.200202
3182,-2.6401806,1.5816557,-5.200202
3183,-2.6401806,1.5816557,-5.200202
3184,-2.6401806,1.5816557,-5.200202
3185,-3.0643084,2.801098,-3.4612179
3186,-3.0643084,2.801098,-3.4612179
3187,-3.0643084,2.801098,-3.4612179
3188,-3.0643084,2.801098,-3.4612179
3189,-2.1278176,-13.471592,24.791437
3190,-2.1278176,-13.471592,24.791437
3191,-2.1278176,-13.471592,24.791437
3192,-2.1278176,-13.471592,24.791437
3193,-2.1278176,-13.471592,24.791437
3194,1.3770695,-17.90579,7.927122
3195,1.3770695,-17.90579,7.927122
3196,1.3770695,-17.90579,7.927122
3197,1.3770695,-17.90579,7.927122
3198,-9.021839,-5.7604213,-0.5267201
3199,-9.021839,-5.7604213,-0.5267201
3200,-9.021839,-5.7604213,-0.5267201
3201,-9.021839,-5.7604213,-0.5267201
3202,-2.7768707,-20.61267,5.0309095
3203,-2.7768707,-20.61267,5.0309095
3204,-2.7768707,-20.61267,5.0309095
3205,-2.7768707,-20.61267,5.0309095
3206,0.45702913,-19.455442,2.4077778
3207,-1.8161523,-8.2660055,-3.0729825
3208,-1.8161523,-8.2660055,-3.0729825
3209,-3.7686956,-7.183254,3.0858438
3210,1.3722838,-6.7618175,-10.791331
3211,1.3722838,-6.7618175,-10.791331
3212,1.3722838,-6.7618175,-10.791331
3213,1.3722838,-6.7618175,-10.791331
3214,1.5397813,-13.162619,2.4867408
3215,1.5397813,-13.162619,2.4867408
3216,1.5397813,-13.162619,2.4867408
3217,1.5397813,-13.162619,2.4867408
3218,1.5397813,-13.162619,2.4867408
3219,4.7138605,-13.797315,3.8665023
3220,4.7138605,-13.797315,3.8665023
3221,2.902793,-9.64128,1.8161523
3222,2.902793,-9.64128,1.8161523
3223,-1.2364911,-4.843073,0.43878385
3224,-1.2364911,-4.843073,0.43878385
3225,-2.1996021,-3.7962132,-3.0011978
3226,-2.1996021,-3.7962132,-3.0011978
3227,-2.1996021,-3.7962132,-3.0011978
3228,-2.1996021,-3.7962132,-3.0011978
3229,-2.650051,-4.052544,-6.014659
3230,-2.949453,-4.5074797,-6.2327046
3231,-3.260819,-6.4002023,-3.463611
3232,-0.57547385,-15.558133,9.658928
3233,-0.57547385,-15.558133,9.658928
3234,-0.57547385,-15.558133,9.658928
3235,-0.57547385,-15.558133,9.658928
3236,0.4331009,-15.09572,11.486745
3237,3.7363925,-12.261721,0.6349953
3238,3.7363925,-12.261721,0.6349953
3239,3.676572,-12.5348015,5.610571
3240,3.676572,-12.5348015,5.610571
3241,3.676572,-12.5348015,5.610571
3242,3.676572,-12.5348015,5.610571
3243,10.022338,-13.885849,-3.5784662
3244,10.022338,-13.885849,-3.5784662
3245,10.022338,-13.885849,-3.5784662
3246,4.354638,-15.201004,3.502494
3247,4.354638,-15.201004,3.502494
3248,-1.6773686,-15.910177,5.663213
3249,-1.6773686,-15.910177,5.663213
3250,-1.6773686,-15.910177,5.663213
3251,-1.6773686,-15.910177,5.663213
3252,6.8506513,-10.525129,-7.195816
3253,6.8506513,-10.525129,-7.195816
3254,6.8506513,-10.525129,-7.195816
3255,6.8506513,-10.525129,-7.195816
3256,-6.882655,-22.277477,-4.3737807
3257,-6.882655,-22.277477,-4.3737807
3258,-6.882655,-22.277477,-4.3737807
3259,-6.882655,-22.277477,-4.3737807
3260,-6.2024956,-19.034006,0.51535416
3261,-6.2024956,-19.034006,0.51535416
3262,-6.2024956,-19.034006,0.51535416
3263,-4.6956153,-16.377375,1.5598212
3264,-4.6956153,-16.377375,1.5598212
3265,-5.1843495,-11.006685,-4.886443
3266,-5.1843495,-11.006685,-4.886443
3267,-5.1843495,-11.006685,-4.886443
3268,-5.1843495,-11.006685,-4.886443
3269,-0.66161543,-6.189335,-1.7482561
3270,-0.66161543,-6.189335,-1.7482561
3271,1.8343977,-5.152046,-1.4751751
3272,1.8343977,-5.152046,-1.4751751
3273,4.807181,-4.3351965,-2.3258235
3274,2.167299,-2.2989044,-3.434897
3275,2.167299,-2.2989044,-3.434897
3276,2.167299,-2.2989044,-3.434897
3277,2.167299,-2.2989044,-3.434897
3278,2.167299,-2.2989044,-3.434897
3279,-1.7730815,-0.59581286,-4.551149
3280,-1.7730815,-0.59581286,-4.551149
3281,-3.8069808,2.3769703,-4.570291
3282,-3.8069808,2.3769703,-4.570291
3283,-0.4866403,0.09661021,-1.7267207
3284,-0.4866403,0.09661021,-1.7267207
3285,-0.4866403,0.09661021,-1.7267207
3286,-0.4866403,0.09661021,-1.7267207
3287,-3.3493536,-22.38994,25.625036
3288,-3.3493536,-22.38994,25.625036
3289,-3.3493536,-22.38994,25.625036
3290,-3.3493536,-22.38994,25.625036
3291,-6.358029,-29.758638,20.54657
3292,-1.8089739,-28.718956,20.642282
3293,1.925624,-18.6362,10.01815
3294,-6.700801,-3.202195,-1.6214365
3295,-6.700801,-3.202195,-1.6214365
3296,-6.700801,-3.202195,-1.6214365
3297,-6.700801,-3.202195,-1.6214365
3298,-12.13849,-15.86232,0.8147561
3299,-12.13849,-15.86232,0.8147561
3300,-12.13849,-15.86232,0.8147561
3301,3.85394,-7.8684983,-11.246566
3302,3.85394,-7.8684983,-11.246566
3303,3.85394,-7.8684983,-11.246566
3304,3.85394,-7.8684983,-11.246566
3305,-0.4435695,-6.1534424,-2.9413772
3306,1.422533,-6.467201,-12.588041
3307,1.422533,-6.467201,-12.588041
3308,1.422533,-6.467201,-12.588041
3309,1.9974087,-6.419345,-15.4675045
3310,-0.31196424,-8.850752,-4.4458647
3311,-0.31196424,-8.850752,-4.4458647
3312,2.7831519,-12.309876,5.838188
3313,2.7831519,-12.309876,5.838188
3314,2.7831519,-12.309876,5.838188
3315,2.7735806,-12.664313,6.0777693
3316,2.847758,-8.30459,-0.5171488
3317,2.847758,-8.30459,-0.5171488
3318,2.847758,-8.30459,-0.5171488
3319,2.847758,-8.30459,-0.5171488
3320,1.6692929,-7.1712894,-0.85244304
3321,-1.9815563,-3.9421754,-0.541077
3322,-1.9815563,-3.9421754,-0.541077
3323,-1.9815563,-3.9421754,-0.541077
3324,-1.9815563,-3.9421754,-0.541077
3325,-1.4353945,-4.265805,-4.0791645
3326,-1.483251,-4.5388856,-5.6386867
3327,-2.0892332,-6.139086,-4.6707897
3328,-2.079662,-6.5318074,-4.1727834
3329,-2.7433712,-10.1802635,0.2542374
3330,-3.952943,-16.494623,6.897012
3331,-3.952943,-16.494623,6.897012
3332,-1.3564314,-15.122041,12.459428
3333,-1.3564314,-15.122041,12.459428
3334,3.2527432,-11.025827,3.8739798
3335,3.2527432,-11.025827,3.8739798
3336,4.733003,-12.369697,-5.7777696
3337,4.733003,-12.369697,-5.7777696
3338,3.0969107,-12.844073,2.1897318
3339,9.907183,-12.7648115,-3.257529
3340,9.907183,-12.7648115,-3.257529
3341,9.907183,-12.7648115,-3.257529
3342,9.907183,-12.7648115,-3.257529
3343,-1.8017955,-16.499409,5.1553364
3344,-1.8017955,-16.499409,5.1553364
3345,-1.8017955,-16.499409,5.1553364
3346,-1.8017955,-16.499409,5.1553364
3347,-0.6831509,-16.485052,6.6478596
3348,0.6008976,-15.24916,8.633603
3349,4.452744,-13.536198,2.254338
3350,4.452744,-13.536198,2.254338
3351,5.466104,-11.548061,-5.480461
3352,0.47138608,-14.197514,-2.4047868
3353,0.47138608,-14.197514,-2.4047868
3354,-4.5158544,-21.240189,-4.239783
3355,-4.5158544,-21.240189,-4.239783
3356,-6.1064835,-22.912174,-4.7715874
3357,-4.8562336,-17.18226,3.3397822
3358,-4.8562336,-17.18226,3.3397822
3359,-4.8562336,-17.18226,3.3397822
3360,-5.708976,-16.621742,0.8602197
3361,-5.708976,-16.621742,0.8602197
3362,-6.9906316,-15.637096,-1.044168
3363,-5.8863435,-11.090434,-4.6731825
3364,-5.8863435,-11.090434,-4.6731825
3365,-2.4846473,-8.199007,-4.625326
3366,-0.37657046,-6.6852474,-3.2790644
3367,0.65353966,-5.75085,-1.3387842
3368,3.676572,-4.8454657,-2.0647068
3369,3.676572,-4.8454657,-2.0647068
3370,4.093521,-4.4955153,-2.4119651
3371,3.8443687,-3.8297126,-2.0431714
3372,1.0223335,0.83688974,-6.2638116
3373,1.0223335,0.83688974,-6.2638116
3374,1.0223335,0.83688974,-6.2638116
3375,1.0223335,0.83688974,-6.2638116
3376,0.41874397,1.4859428,-5.49751
3377,-4.099204,4.1928234,-1.422533
3378,-4.099204,4.1928234,-1.422533
3379,-4.099204,4.1928234,-1.422533
3380,-4.099204,4.1928234,-1.422533
3381,-1.8714864,2.1951156,-5.4684973
3382,-1.8714864,2.1951156,-5.4684973
3383,-3.9194436,-23.25734,25.172195
3384,-3.9194436,-23.25734,25.172195
3385,-3.9194436,-23.25734,25.172195
3386,-3.9194436,-23.25734,25.172195
3387,3.8108692,-28.635208,15.88236
3388,3.8108692,-28.635208,15.88236
3389,3.8108692,-28.635208,15.88236
3390,-0.012562319,-15.086148,7.112665
3391,-0.012562319,-15.086148,7.112665
3392,-8.051848,-3.9684963,-0.03798606
3393,-6.710372,-13.483556,14.603396
3394,-6.710372,-13.483556,14.603396
3395,-6.710372,-13.483556,14.603396
3396,-6.710372,-13.483556,14.603396
3397,-2.0868404,-15.457335,17.614466
3398,4.282554,-17.527126,9.654142
3399,10.034302,-15.234802,-18.55275
3400,7.7273216,-11.078469,-16.686647
3401,2.030908,-9.164511,-8.379066
3402,1.4967105,-8.33809,-4.4745784
3403,1.4967105,-8.33809,-4.4745784
3404,1.4967105,-8.33809,-4.4745784
3405,-0.7477571,-10.050753,0.12981063
3406,-0.7477571,-10.050753,0.12981063
3407,-0.7477571,-10.050753,0.12981063
3408,-0.7477571,-10.050753,0.12981063
3409,-0.40767714,-10.625628,1.0830513
3410,0.3684947,-11.53849,2.417349
3411,1.6932211,-11.816357,2.5851457
3412,3.5449667,-10.12493,2.172982
3413,3.5449667,-10.12493,2.172982
3414,0.86201435,-7.2026954,0.32841492
3415,0.86201435,-7.2026954,0.32841492
3416,-1.7946169,-6.2324057,0.6349953
3417,-3.2273195,-5.53759,1.6674982
3418,-1.8954146,-5.346164,-3.7414773
3419,-1.8954146,-5.346164,-3.7414773
3420,-1.8954146,-5.346164,-3.7414773
3421,-1.8954146,-5.346164,-3.7414773
3422,-1.5239289,-5.779564,-5.8567324
3423,-1.605584,-10.189836,-0.41904306
3424,-1.605584,-10.189836,-0.41904306
3425,-1.605584,-10.189836,-0.41904306
3426,-1.9121644,-11.440085,1.3489537
3427,0.79471624,-11.969497,5.9578295
3428,0.79471624,-11.969497,5.9578295
3429,0.79471624,-11.969497,5.9578295
3430,1.1255239,-11.873784,4.606782
3431,2.656033,-13.464413,-2.1197417
3432,2.8429725,-14.369798,-2.3449662
3433,1.9734805,-14.051252,4.808078
3434,2.2465613,-13.797315,6.0729837
3435,7.42792,-13.251153,2.0892332
3436,7.42792,-13.251153,2.0892332
3437,10.815259,-13.229617,-0.9843474
3438,10.465608,-13.562519,-2.0599213
3439,5.6985073,-14.446667,1.9908284
3440,-1.1718849,-15.867106,5.3733826
3441,-1.1718849,-15.867106,5.3733826
3442,-0.46271208,-16.207186,7.6277204
3443,1.5349957,-15.17229,9.074481
3444,1.9567307,-15.239589,8.5067835
3445,4.666004,-14.108681,1.5741782
3446,4.9989057,-12.036796,-4.5894337
3447,3.3340993,-11.267802,-7.763513
3448,1.4129617,-11.698809,-7.449754
3449,-1.8690935,-15.615561,-2.821736
3450,-3.004488,-17.46252,-2.9748766
3451,-6.3795643,-22.064219,-3.964309
3452,-7.5272217,-22.86671,-2.5268207
3453,-5.9150577,-18.751354,2.4699912
3454,-5.1125646,-16.600206,1.9334008
3455,-4.880162,-16.010675,1.0543375
3456,-4.484748,-15.117255,-0.2632105
3457,-5.0790653,-13.934005,-1.4488541
3458,-5.229813,-13.361522,-2.2704897
3459,-4.781757,-10.77189,-4.855336
3460,-3.1552358,-8.946465,-6.012266
3461,3.065804,-4.316054,-1.4850456
3462,3.065804,-4.316054,-1.4850456
3463,3.065804,-4.316054,-1.4850456
3464,3.920939,-4.0740795,-1.288535
3465,3.7483566,-2.929114,-1.3818551
3466,2.4670002,-1.4676976,-2.1891336
3467,2.4670002,-1.4676976,-2.1891336
3468,2.4670002,-1.4676976,-2.1891336
3469,1.3504493,-0.70588267,-4.1174498
3470,-0.15373886,-0.09032906,-4.8529434
3471,-2.105983,0.47736812,-4.0887356
3472,-3.2919257,1.6848463,-2.3377876
3473,-3.2919257,1.6848463,-2.3377876
3474,-3.2919257,1.6848463,-2.3377876
3475,-3.2919257,1.6848463,-2.3377876
3476,-3.5506496,1.1291132,-3.353242
3477,-1.4617156,0.36490545,-3.9834516
3478,-2.1011975,-6.7498536,5.510072
3479,-2.1011975,-6.7498536,5.510072
3480,-3.3062828,-12.122937,17.753248
3481,-1.713261,-21.400808,30.116665
3482,-0.6329016,-31.143185,22.103699
3483,-0.6329016,-31.143185,22.103699
3484,3.0083764,-18.751354,10.010972
3485,3.0083764,-18.751354,10.010972
3486,-12.665509,-7.2122664,-0.83090764
3487,-12.665509,-7.2122664,-0.83090764
3488,-12.665509,-7.2122664,-0.83090764
3489,-12.665509,-7.2122664,-0.83090764
3490,-13.781761,-14.362618,-0.08344969
3491,-12.706187,-17.754744,1.4183456
3492,-5.790332,-24.629921,5.0189457
3493,7.9764743,-10.2927265,-15.0888405
3494,7.9764743,-10.2927265,-15.0888405
3495,7.9764743,-10.2927265,-15.0888405
3496,-1.9911275,-3.8560338,5.0883374
3497,-1.9911275,-3.8560338,5.0883374
3498,-1.9911275,-3.8560338,5.0883374
3499,-0.6999006,-4.9531426,-2.5220351
3500,1.5038891,-5.671887,-13.213166
3501,0.55034924,-6.500701,-13.929518
3502,-1.9600209,-7.734201,-8.848659
3503,-1.7850457,-8.841181,-4.304389
3504,-1.0642079,-9.701101,-2.7592237
3505,2.821437,-14.1517515,4.558925
3506,2.821437,-14.1517515,4.558925
3507,2.821437,-14.1517515,4.558925
3508,-0.06999006,-6.6828547,-0.5626124
3509,-0.06999006,-6.6828547,-0.5626124
3510,-0.06999006,-6.6828547,-0.5626124
3511,-0.06999006,-6.6828547,-0.5626124
3512,-0.8748758,-5.889933,-0.10737792
3513,-2.664408,-4.248756,0.9921241
3514,-3.054737,-4.0405803,1.0830513
3515,-3.2081769,-4.059723,-2.428715
3516,-2.2211375,-8.019546,-0.69930243
3517,-2.2211375,-8.019546,-0.69930243
3518,-2.2211375,-8.019546,-0.69930243
3519,-2.2211375,-8.019546,-0.69930243
3520,0.9553344,-14.37219,9.742677
3521,0.9553344,-14.37219,9.742677
3522,0.9553344,-14.37219,9.742677
3523,0.9553344,-14.37219,9.742677
3524,1.7602202,-13.663317,10.962119
3525,3.5473595,-12.360126,7.0549383
3526,4.7042894,-12.156436,0.7070791
3527,4.6468616,-13.327723,-3.2671003
3528,3.7387853,-13.387843,-0.79740816
3529,0.6966105,-12.721741,7.8741813
3530,3.8324046,-12.158829,1.2532408
3531,3.8324046,-12.158829,1.2532408
3532,7.305886,-11.816357,-3.8156548
3533,9.833006,-13.093226,-2.5941188
3534,10.039087,-13.675281,-0.75673014
3535,5.22413,-15.955641,5.272884
3536,2.7616165,-16.64567,6.7722864
3537,-1.0881361,-16.39891,4.592425
3538,-1.1503495,-15.953248,6.343672
3539,3.3699915,-13.452449,3.2126634
3540,3.3699915,-13.452449,3.2126634
3541,-1.9025931,-15.917356,-3.9308095
3542,-1.9025931,-15.917356,-3.9308095
3543,-1.9025931,-15.917356,-3.9308095
3544,-1.9025931,-15.917356,-3.9308095
3545,-8.425427,-22.147966,-1.2693924
3546,-8.425427,-22.147966,-1.2693924
3547,-8.425427,-22.147966,-1.2693924
3548,-8.425427,-22.147966,-1.2693924
3549,-5.7951174,-17.175083,1.7635103
3550,-4.90409,-14.964114,0.46271208
3551,-4.90409,-14.964114,0.46271208
3552,-5.296812,-13.754244,-1.4297116
3553,-5.296812,-13.754244,-1.4297116
3554,-0.050847482,-7.1569324,-2.9676983
3555,-0.050847482,-7.1569324,-2.9676983
3556,-0.050847482,-7.1569324,-2.9676983
3557,0.4881358,-6.4552374,-1.1542379
3558,3.690929,-4.833502,-0.5937191
3559,3.690929,-4.833502,-0.5937191
3560,4.3115673,-4.6896334,-1.4584254
3561,4.57747,-4.390231,-1.1135598
3562,2.629712,-2.9937203,-2.6395824
3563,2.629712,-2.9937203,-2.6395824
3564,-0.3382853,-0.8138588,-4.136592
3565,-0.3382853,-0.8138588,-4.136592
3566,-3.5243287,1.550549,-5.669793
3567,-3.5243287,1.550549,-5.669793
3568,-4.7027936,2.6907291,-4.6372905
3569,-4.3986063,3.426223,-2.7999015
3570,-4.3986063,3.426223,-2.7999015
3571,-3.5626137,2.53041,-1.7434704
3572,-3.3038898,2.298007,-1.044168
3573,-1.6127625,1.4979069,-0.29192436
3574,0.37567315,-7.109076,11.026725
3575,0.37567315,-7.109076,11.026725
3576,-1.1359925,-14.4897375,23.818754
3577,-1.4641083,-23.757738,25.267908
3578,-3.4549367,-28.031319,22.165913
3579,-3.8117664,-32.66921,19.667507
3580,-3.0762727,-4.323232,3.5766716
3581,-3.0762727,-4.323232,3.5766716
3582,-3.0762727,-4.323232,3.5766716
3583,-3.0762727,-4.323232,3.5766716
3584,-10.6459675,-12.072687,0.09122636
3585,-10.6459675,-12.072687,0.09122636
3586,-10.6459675,-12.072687,0.09122636
3587,-0.898804,-18.250656,3.7995033
3588,-0.898804,-18.250656,3.7995033
3589,-0.898804,-18.250656,3.7995033
3590,2.902793,-14.103895,-7.0806613
3591,0.72053874,-7.015756,-6.0747786
3592,-3.409174,-5.2573304,-0.08823533
3593,-3.409174,-5.2573304,-0.08823533
3594,-2.5444677,-5.226224,-2.1604197
3595,-0.66400826,-7.791928,-8.827123
3596,-0.66400826,-7.791928,-8.827123
3597,-0.66400826,-7.791928,-8.827123
3598,-0.4435695,-9.492626,-3.109174
3599,2.0691934,-14.053645,4.415356
3600,2.0691934,-14.053645,4.415356
3601,2.0691934,-14.053645,4.415356
3602,4.5269213,-14.516059,3.409174
3603,4.5269213,-14.516059,3.409174
3604,3.6335013,-10.127323,0.28055847
3605,3.6335013,-10.127323,0.28055847
3606,2.5603201,-8.000103,-1.1685947
3607,-0.7573284,-5.063512,1.4494523
3608,-2.3168504,-4.200899,2.2929223
3609,-2.3168504,-4.200899,2.2929223
3610,-1.9911275,-4.2511487,-2.2824538
3611,-1.9911275,-4.2511487,-2.2824538
3612,-2.408077,-4.7159543,-5.169095
3613,-2.408077,-4.7159543,-5.169095
3614,-3.0116663,-10.7431755,0.8554341
3615,-3.0116663,-10.7431755,0.8554341
3616,-3.0116663,-10.7431755,0.8554341
3617,3.6143587,-12.369697,6.262017
3618,3.6143587,-12.369697,6.262017
3619,3.6143587,-12.369697,6.262017
3620,3.6143587,-12.369697,6.262017
3621,3.6143587,-12.369697,6.262017
3622,1.570888,-12.918251,5.517251
3623,1.570888,-12.918251,5.517251
3624,1.570888,-12.918251,5.517251
3625,1.570888,-12.918251,5.517251
3626,3.743571,-13.088441,6.087341
3627,6.4384875,-13.775779,1.5406786
3628,9.3155575,-13.898112,-2.469393
3629,9.612567,-14.003396,-2.0575283
3630,0.38285163,-14.968901,8.53789
3631,0.38285163,-14.968901,8.53789
3632,-1.6366907,-15.074184,8.257631
3633,4.4001017,-12.559029,1.3202399
3634,4.4001017,-12.559029,1.3202399
3635,4.4001017,-12.559029,1.3202399
3636,4.4001017,-12.559029,1.3202399
3637,5.4876394,-10.719247,-3.501896
3638,5.0970116,-10.362119,-7.3609204
3639,3.3412778,-11.090434,-8.724232
3640,1.0366904,-13.560126,-4.7285166
3641,-3.938586,-19.321445,-1.3579268
3642,-7.8146596,-23.798716,-2.3449662
3643,-7.8146596,-23.798716,-2.3449662
3644,-7.5439715,-22.318155,0.18723837
3645,-6.1208405,-18.974186,2.0748763
3646,-6.8132634,-13.8691,-1.6046867
3647,-6.8132634,-13.8691,-1.6046867
3648,-6.8132634,-13.8691,-1.6046867
3649,-6.8132634,-13.8691,-1.6046867
3650,0.7588239,-6.3424754,-0.9409775
3651,0.7588239,-6.3424754,-0.9409775
3652,0.7588239,-6.3424754,-0.9409775
3653,0.7588239,-6.3424754,-0.9409775
3654,1.3289139,-6.0717874,-0.9604192
3655,3.0969107,-5.3219366,-1.5927225
3656,3.865904,-3.67388,-1.5951154
3657,3.865904,-3.67388,-1.5951154
3658,3.5234313,-3.5446677,-1.7844474
3659,-0.64008003,2.1975086,-4.364209
3660,-0.64008003,2.1975086,-4.364209
3661,-0.64008003,2.1975086,-4.364209
3662,-0.64008003,2.1975086,-4.364209
3663,-2.2235305,3.682554,-3.1833515
3664,-2.2235305,3.682554,-3.1833515
3665,-1.0280164,3.735196,-2.3784657
3666,-1.0280164,3.735196,-2.3784657
3667,-1.0280164,3.735196,-2.3784657
3668,1.4895321,0.26650062,-3.636193
3669,1.4895321,0.26650062,-3.636193
3670,0.59611195,-3.9014974,1.2580265
3671,-1.9767706,-10.513165,15.765112
3672,1.3121641,-25.111177,13.882259
3673,1.3121641,-25.111177,13.882259
3674,1.3121641,-25.111177,13.882259
3675,1.3121641,-25.111177,13.882259
3676,-0.25692934,-14.875281,6.7579293
3677,-1.9289142,-10.668699,5.529215
3678,-9.879665,-3.5111682,-8.2761755
3679,-9.879665,-3.5111682,-8.2761755
3680,-9.879665,-3.5111682,-8.2761755
3681,-15.573687,-8.460124,-4.8290153
3682,-9.196814,-18.221943,14.327923
3683,-9.196814,-18.221943,14.327923
3684,8.469994,-16.101902,-15.742978
3685,8.469994,-16.101902,-15.742978
3686,1.2451651,-6.6275206,-5.193023
3687,1.2451651,-6.6275206,-5.193023
3688,0.1265205,-6.409774,-1.8610178
3689,0.3469593,-6.517451,4.508676
3690,2.2872393,-6.946364,-2.4837499
3691,3.6335013,-7.734201,-12.971192
3692,0.60807604,-8.45773,-7.0902324
3693,0.0041874396,-8.797811,-4.8290153
3694,2.656033,-13.8499565,3.4929228
3695,2.656033,-13.8499565,3.4929228
3696,2.656033,-13.8499565,3.4929228
3697,2.656033,-13.8499565,3.4929228
3698,3.4298122,-10.247263,2.0198414
3699,3.4298122,-10.247263,2.0198414
3700,3.4298122,-10.247263,2.0198414
3701,-4.075276,-4.234399,2.2519453
3702,-4.075276,-4.234399,2.2519453
3703,-4.075276,-4.234399,2.2519453
3704,-4.075276,-4.234399,2.2519453
3705,-2.3168504,-5.688637,-5.7224355
3706,-2.3168504,-5.688637,-5.7224355
3707,-2.3168504,-5.688637,-5.7224355
3708,-2.3168504,-5.688637,-5.7224355
3709,-1.9839491,-6.24437,-5.234
3710,-0.7573284,-9.81835,-0.58654064
3711,-0.7573284,-9.81835,-0.58654064
3712,-0.7573284,-9.81835,-0.58654064
3713,1.625923,-14.5615225,9.701999
3714,1.625923,-14.5615225,9.701999
3715,1.625923,-14.5615225,9.701999
3716,1.625923,-14.5615225,9.701999
3717,3.0275187,-13.852349,-2.376073
3718,3.0275187,-13.852349,-2.376073
3719,0.81625164,-14.06561,-0.17228323
3720,-0.026919255,-14.005789,2.7622147
3721,1.939981,-13.718351,5.33749
3722,3.4226336,-13.5074835,4.575675
3723,9.198309,-15.490834,-1.2598212
3724,9.198309,-15.490834,-1.2598212
3725,9.198309,-15.490834,-1.2598212
3726,7.408777,-15.816856,1.2795619
3727,0.17437695,-16.868502,6.897012
3728,-2.774478,-17.273188,7.6947193
3729,0.20787647,-16.913965,9.682856
3730,1.2403795,-16.40609,9.920045
3731,6.0696936,-13.112369,7.41446
3732,7.173981,-11.471191,1.1500504
3733,7.2843504,-9.157332,-6.261419
3734,5.818148,-9.090333,-8.515757
3735,2.3781667,-11.512169,-7.4976106
3736,-6.9595246,-20.787348,-0.6559325
3737,-6.9595246,-20.787348,-0.6559325
3738,-9.1681,-23.225933,0.12981063
3739,-9.1681,-23.225933,0.12981063
3740,-8.444571,-21.76003,0.8219346
3741,-5.6946187,-17.405092,1.6698911
3742,-4.647759,-15.028721,-1.5616158
3743,-4.647759,-15.028721,-1.5616158
3744,-4.647759,-15.028721,-1.5616158
3745,-4.5687957,-13.011571,-5.047061
3746,-1.0112667,-7.3079796,-1.2861422
3747,-1.0112667,-7.3079796,-1.2861422
3748,-1.0112667,-7.3079796,-1.2861422
3749,1.1877373,-6.675676,-1.3890336
3750,2.9004002,-5.9904313,-1.9998015
3751,5.13081,-4.881358,-2.71376
3752,4.9677987,-4.1961136,-1.9184456
3753,3.51386,-3.2189445,-1.9064814
3754,3.2093735,-2.7182465,-1.7676977
3755,2.457429,-1.1587243,-3.4205399
3756,-2.2737796,2.9015965,-4.138985
3757,-2.2737796,2.9015965,-4.138985
3758,-2.2737796,2.9015965,-4.138985
3759,-2.2737796,2.9015965,-4.138985
3760,-4.1279182,4.434798,-3.4971104
3761,-4.1279182,4.434798,-3.4971104
3762,-4.089633,4.408477,-2.4023938
3763,-1.2819548,-3.6379876,-0.16510476
3764,-1.2819548,-3.6379876,-0.16510476
3765,-1.2819548,-3.6379876,-0.16510476
3766,-2.693122,-8.129615,7.227521
3767,-4.42732,-16.39891,23.804398
3768,-5.668298,-25.345974,26.024937
3769,-9.486645,-35.433517,26.499315
3770,3.3939197,-24.708885,12.653246
3771,3.3939197,-24.708885,12.653246
3772,-3.653541,0.7815557,-7.112067
3773,-3.653541,0.7815557,-7.112067
3774,-3.653541,0.7815557,-7.112067
3775,-3.653541,0.7815557,-7.112067
3776,-9.343075,-3.202195,-9.53151
3777,-12.967304,-9.890433,-9.598509
3778,-13.000804,-12.221043,-2.0647068
3779,-10.682158,-20.725134,15.139987
3780,9.248559,-17.337795,-16.73959
3781,9.248559,-17.337795,-16.73959
3782,7.106982,-14.688342,-14.672191
3783,1.7985053,-9.078369,4.942375
3784,2.5674987,-7.003792,-8.479864
3785,2.5674987,-7.003792,-8.479864
3786,-1.2173486,-9.030213,-2.1532412
3787,-1.2173486,-9.030213,-2.1532412
3788,-1.2173486,-9.030213,-2.1532412
3789,-1.2173486,-9.030213,-2.1532412
3790,0.3062813,-11.53849,2.4939194
3791,0.3062813,-11.53849,2.4939194
3792,0.3062813,-11.53849,2.4939194
3793,1.6429719,-11.876177,2.4747767
3794,3.1519456,-10.280763,0.57517475
3795,3.1519456,-10.280763,0.57517475
3796,2.4646072,-9.186047,0.19680966
3797,0.27726832,-7.775178,-0.102592275
3798,-2.1326032,-4.914858,-0.22013968
3799,-2.1326032,-4.914858,-0.22013968
3800,-2.1326032,-4.914858,-0.22013968
3801,-2.1326032,-4.914858,-0.22013968
3802,-2.0198414,-4.8119664,-1.4129617
3803,-3.3373895,-7.097112,0.3595216
3804,-3.3373895,-7.097112,0.3595216
3805,-3.3373895,-7.097112,0.3595216
3806,-3.3373895,-7.097112,0.3595216
3807,-3.5530424,-11.066505,2.4819553
3808,-3.5530424,-11.066505,2.4819553
3809,-1.7635103,-13.315759,4.6522455
3810,5.482854,-13.898112,3.5527434
3811,5.482854,-13.898112,3.5527434
3812,5.889933,-13.833207,1.9453648
3813,6.268597,-12.879966,-2.3928227
3814,0.33260235,-12.343375,4.3743787
3815,0.33260235,-12.343375,4.3743787
3816,5.0563335,-12.94218,1.4183456
