,ax,ay,az
501,-1.2819548,-14.09193,3.9816568
502,3.7052858,-12.669099,0.64935225
503,3.7052858,-12.669099,0.64935225
504,3.7052858,-12.669099,0.64935225
505,3.7052858,-12.669099,0.64935225
506,-0.029312078,-13.967504,3.9098723
507,-0.029312078,-13.967504,3.9098723
508,1.8583258,-13.270295,6.515955
509,11.275279,-14.983257,0.22073789
510,11.275279,-14.983257,0.22073789
511,11.275279,-14.983257,0.22073789
512,-0.73100734,-17.484056,4.6115675
513,-0.73100734,-17.484056,4.6115675
514,-0.73100734,-17.484056,4.6115675
515,-0.73100734,-17.484056,4.6115675
516,-2.4272194,-17.304295,7.835896
517,-0.12981063,-16.154543,6.2261243
518,3.4585261,-14.528023,1.5143577
519,4.9007998,-13.759029,-0.18664017
520,4.5652065,-12.398411,-4.0887356
521,-3.7758741,-14.657235,-2.2154546
522,-3.7758741,-14.657235,-2.2154546
523,-4.4392843,-15.661024,-3.0346973
524,-6.3125653,-19.127327,-2.2561326
525,-6.3125653,-19.127327,-2.2561326
526,-5.7113686,-18.535702,0.064905316
527,-4.113561,-16.731812,3.1480572
528,-3.938586,-16.391733,3.0257242
529,-5.15085,-16.20958,0.5632106
530,-5.5794644,-15.8025,-0.69212395
531,-2.9012976,-9.907183,-5.3847485
532,-2.9012976,-9.907183,-5.3847485
533,-2.9012976,-9.907183,-5.3847485
534,0.21266212,-7.602596,-3.8850467
535,1.0869397,-6.7905316,-2.3665016
536,2.9075787,-5.6264234,-0.7160522
537,3.566502,-5.5591254,-0.6152545
538,5.480461,-4.677669,-1.7003996
539,4.979763,-4.0214376,-1.6908283
540,4.6229334,-3.8464625,-1.8394824
541,3.5401812,-2.6512475,-3.6864424
542,1.925624,-1.2281163,-4.380959
543,-0.47946185,0.4534399,-4.69741
544,-0.47946185,0.4534399,-4.69741
545,-1.605584,1.2990036,-4.7955155
546,-2.1302104,2.6333013,-4.354638
547,-4.18056,3.165106,-4.8673005
548,-2.841477,3.2994034,-3.7797625
549,-2.0581267,3.1172497,-2.4909284
550,-2.8462625,2.4969103,-2.9820552
551,-1.0594223,-3.2620156,2.7287152
552,-1.0594223,-3.2620156,2.7287152
553,-2.5061827,-6.754639,11.898909
554,-5.854938,-15.991533,29.642286
555,-5.854938,-15.991533,29.642286
556,0.2748755,-18.799212,9.323633
557,0.2748755,-18.799212,9.323633
558,0.2748755,-18.799212,9.323633
559,0.2748755,-18.799212,9.323633
560,-11.254642,-9.559626,-4.738088
561,-12.67508,-10.812568,-4.3235316
562,-12.67508,-10.812568,-4.3235316
563,-12.67508,-10.812568,-4.3235316
564,0.51445687,-10.0627165,-6.8075805
565,0.51445687,-10.0627165,-6.8075805
566,0.51445687,-10.0627165,-6.8075805
567,0.51445687,-10.0627165,-6.8075805
568,-4.182953,-7.7847495,4.6091747
569,-4.182953,-7.7847495,4.6091747
570,-4.182953,-7.7847495,4.6091747
571,-4.182953,-7.7847495,4.6091747
572,1.721935,-10.788639,-9.423533
573,1.721935,-10.788639,-9.423533
574,1.721935,-10.788639,-9.423533
575,2.8094728,-11.653345,-2.0527427
576,2.8094728,-11.653345,-2.0527427
577,3.7196429,-13.526627,3.3299117
578,3.7196429,-13.526627,3.3299117
579,3.7196429,-13.526627,3.3299117
580,3.935296,-13.150654,3.205485
581,4.1126637,-12.54198,2.9706893
582,2.8573294,-10.592129,1.6076777
583,0.102592275,-5.621638,0.5512465
584,0.102592275,-5.621638,0.5512465
585,-2.3479571,-3.9661036,1.0686945
586,-2.3479571,-3.9661036,1.0686945
587,-2.1900308,-4.2969112,-3.6047873
588,-2.1900308,-4.2969112,-3.6047873
589,-2.1900308,-4.2969112,-3.6047873
590,-2.1900308,-4.2969112,-3.6047873
591,-2.4774687,-11.979069,2.2351954
592,-2.4774687,-11.979069,2.2351954
593,-2.4774687,-11.979069,2.2351954
594,-2.4774687,-11.979069,2.2351954
595,3.039483,-12.868002,6.245267
596,3.039483,-12.868002,6.245267
597,3.039483,-12.868002,6.245267
598,3.039483,-12.868002,6.245267
599,0.035593238,-13.07857,4.796114
600,0.035593238,-13.07857,4.796114
601,0.035593238,-13.07857,4.796114
602,0.035593238,-13.07857,4.796114
603,2.00698,-12.752848,6.61436
604,5.3943195,-12.664313,2.225624
605,6.7645097,-12.853645,-0.2416751
606,9.909575,-15.150755,-2.141277
607,9.111869,-16.228722,0.08644072
608,2.795116,-16.343876,5.6967125
609,-0.15613168,-16.037296,7.172486
610,-4.861019,-15.469299,5.878866
611,-1.0423734,-14.705391,8.755937
612,0.36131623,-14.276477,8.92822
613,8.180163,-11.394622,-1.7171494
614,8.180163,-11.394622,-1.7171494
615,8.180163,-11.394622,-1.7171494
616,6.378667,-10.829317,-7.8257265
617,3.2527432,-12.419946,-6.256633
618,-0.64965135,-16.439589,-3.2790644
619,-2.5731816,-18.418154,-2.9892337
620,-4.9088755,-21.99722,-2.8241289
621,-5.6132627,-22.708485,-2.37368
622,-6.27428,-17.371593,0.062512495
623,-6.27428,-17.371593,0.062512495
624,-6.27428,-17.371593,0.062512495
625,-6.27428,-17.371593,0.062512495
626,-7.064809,-15.45255,-2.2226331
627,-4.2020955,-10.575378,-4.668397
628,-4.2020955,-10.575378,-4.668397
629,-3.1097722,-9.138189,-3.8204405
630,-1.061815,-6.443273,-1.1446666
631,-0.4124628,-6.10768,-0.7160522
632,2.5627131,-5.398806,-0.63200426
633,3.5306098,-5.2549376,-0.90029955
634,4.9773703,-4.775775,-1.7195421
635,4.6229334,-4.6872406,-1.7988044
636,3.2982068,-3.3529427,-3.9140596
637,2.9386854,-2.9889345,-4.234997
638,1.4153546,-0.7680961,-5.085346
639,-0.9490533,1.4285151,-5.152345
640,-0.9490533,1.4285151,-5.152345
641,-1.9767706,3.205784,-4.436293
642,-2.4655046,3.6083765,-3.9403806
643,-2.5301108,3.4573295,-3.5330026
644,-2.4822545,3.2826536,-1.7338991
645,0.97926265,1.5888343,-0.37088752
646,0.97926265,1.5888343,-0.37088752
647,-0.8964112,-5.386842,5.241777
648,-0.8964112,-5.386842,5.241777
649,-3.5386856,-9.533304,15.338592
650,-9.163314,-20.86661,23.277378
651,-10.921441,-33.282368,17.348562
652,-8.660223,-32.855846,17.609678
653,-0.12263216,-16.025032,9.040981
654,-0.12263216,-16.025032,9.040981
655,-0.8006983,-7.990532,6.276374
656,-1.7850457,-3.5183465,3.3517463
657,-3.926622,-1.2783655,-2.4789643
658,-10.24846,-4.390231,-4.2780676
659,-10.988739,-9.945468,-6.1441703
660,-8.830413,-15.433407,4.0366917
661,0.6655038,-22.90021,9.223135
662,0.6655038,-22.90021,9.223135
663,5.2552366,-11.866606,-16.887943
664,3.6813576,-10.72164,-14.890236
665,1.1231312,-8.819645,-8.4679
666,-3.6152558,-6.8742805,12.152548
667,-0.50817573,-6.7498536,-1.2789637
668,3.5114672,-6.3903317,-15.687943
669,3.5114672,-6.3903317,-15.687943
670,-0.51086766,-9.399306,-1.6788642
671,-0.51086766,-9.399306,-1.6788642
672,-0.51086766,-9.399306,-1.6788642
673,3.6646078,-13.521841,2.4795625
674,3.6646078,-13.521841,2.4795625
675,3.6646078,-13.521841,2.4795625
676,3.6646078,-13.521841,2.4795625
677,4.3235316,-13.615161,1.8448663
678,0.5626124,-6.8407807,0.4339982
679,0.5626124,-6.8407807,0.4339982
680,0.5626124,-6.8407807,0.4339982
681,-2.4990041,-4.4931226,1.8544376
682,-2.4990041,-4.4931226,1.8544376
683,-2.9279177,-4.3064823,1.5215361
684,-3.394817,-3.8177485,-0.33260235
685,-2.7218359,-4.39741,-4.8003016
686,-2.7218359,-4.39741,-4.8003016
687,-2.800799,-7.2122664,-3.0900314
688,-2.800799,-7.2122664,-3.0900314
689,-2.9156544,-8.373981,-1.8873389
690,-3.251248,-11.761321,1.6411772
691,-2.853441,-15.462121,6.436992
692,3.4944184,-11.397015,7.050153
693,3.4944184,-11.397015,7.050153
694,3.4944184,-11.397015,7.050153
695,2.4789643,-14.331512,-3.734299
696,2.4789643,-14.331512,-3.734299
697,2.4789643,-14.331512,-3.734299
698,6.4794645,-13.01875,3.6176488
699,6.4794645,-13.01875,3.6176488
700,8.422137,-13.270295,2.1442683
701,10.692926,-14.108681,-0.42622152
702,10.846366,-14.123037,-1.7581264
703,10.846366,-14.123037,-1.7581264
704,0.5312066,-15.050256,7.3112698
705,0.5312066,-15.050256,7.3112698
706,0.5312066,-15.050256,7.3112698
707,0.5312066,-15.050256,7.3112698
708,4.234698,-12.419946,4.0390844
709,6.352346,-11.186147,-4.3522453
710,6.352346,-11.186147,-4.3522453
711,-6.099305,-20.162222,-3.839583
712,-6.099305,-20.162222,-3.839583
713,-6.099305,-20.162222,-3.839583
714,-6.099305,-20.162222,-3.839583
715,-7.9055867,-22.99383,-1.6381862
716,-7.9055867,-22.99383,-1.6381862
717,-6.8300133,-20.42334,1.2460624
718,-5.7448683,-17.855242,1.7225332
719,-5.1771708,-16.017855,0.38584265
720,-5.1771708,-16.017855,0.38584265
721,-5.4981084,-15.407086,0.1585245
722,-5.11735,-13.60559,-1.2116655
723,-3.2727833,-10.1033945,-3.909274
724,-3.2727833,-10.1033945,-3.909274
725,-0.13220344,-6.1845493,-1.7123637
726,-0.13220344,-6.1845493,-1.7123637
727,1.2547364,-5.4729834,-1.3052847
728,2.847758,-4.9316072,-1.8610178
729,3.2383864,-4.881358,-2.1843479
730,4.110271,-4.572385,-2.292324
731,3.2407792,-2.5121646,-3.2407792
732,3.2407792,-2.5121646,-3.2407792
733,1.340878,0.017347964,-5.47089
734,1.340878,0.017347964,-5.47089
735,1.340878,0.017347964,-5.47089
736,-2.1948166,2.0249262,-4.634897
737,-1.5574285,2.951846,-1.518545
738,-1.5574285,2.951846,-1.518545
739,-1.5574285,2.951846,-1.518545
740,-1.5574285,2.951846,-1.518545
741,1.5014962,0.5276174,-1.029811
742,1.5014962,0.5276174,-1.029811
743,-8.5525465,-29.583662,19.55953
744,-8.5525465,-29.583662,19.55953
745,-8.5525465,-29.583662,19.55953
746,-8.5525465,-29.583662,19.55953
747,-7.974979,-33.16751,19.640886
748,-2.784049,-28.795527,17.956938
749,-1.8523438,-0.4112664,0.5392824
750,-1.8523438,-0.4112664,0.5392824
751,-1.8523438,-0.4112664,0.5392824
752,-1.8523438,-0.4112664,0.5392824
753,-3.7710886,0.18275183,-1.6788642
754,-11.805589,-4.665705,-8.367103
755,-2.3312075,-23.353052,12.916756
756,-2.3312075,-23.353052,12.916756
757,-2.3312075,-23.353052,12.916756
758,-2.3312075,-23.353052,12.916756
759,5.183452,-14.046467,-17.316858
760,5.183452,-14.046467,-17.316858
761,3.892225,-8.196614,-14.8734865
762,3.892225,-8.196614,-14.8734865
763,3.892225,-8.196614,-14.8734865
764,3.892225,-8.196614,-14.8734865
765,2.2585254,-8.110473,-9.984053
766,1.4679967,-8.244471,-7.368099
767,-0.0077766734,-8.582457,-3.2096725
768,-0.36460635,-10.1802635,3.1289146
769,-0.36460635,-10.1802635,3.1289146
770,-0.36460635,-10.1802635,3.1289146
771,-0.36460635,-10.1802635,3.1289146
772,0.9026923,-8.912965,1.3537394
773,0.9026923,-8.912965,1.3537394
774,0.9026923,-8.912965,1.3537394
775,0.9026923,-8.912965,1.3537394
776,-1.0642079,-6.460023,0.95383894
777,-1.250848,-4.833502,0.73100734
778,-1.1383854,-4.694419,0.4866403
779,-1.1575279,-5.209474,-3.2264223
780,-1.1575279,-5.209474,-3.2264223
781,-1.1575279,-5.209474,-3.2264223
782,-1.1575279,-5.209474,-3.2264223
783,-1.3683954,-8.747561,-1.9160527
784,-1.3683954,-8.747561,-1.9160527
785,-1.3301103,-9.880862,-1.1685947
786,1.477568,-15.519848,12.988839
787,1.477568,-15.519848,12.988839
788,1.477568,-15.519848,12.988839
789,1.477568,-15.519848,12.988839
790,2.510071,-11.4954195,-2.7927232
791,2.510071,-11.4954195,-2.7927232
792,-0.31435707,-11.677274,5.4837513
793,-0.31435707,-11.677274,5.4837513
794,-0.31435707,-11.677274,5.4837513
795,8.906086,-13.160226,-3.964309
796,8.906086,-13.160226,-3.964309
797,8.906086,-13.160226,-3.964309
798,9.679865,-14.78914,-1.6381862
799,9.679865,-14.78914,-1.6381862
800,9.679865,-14.78914,-1.6381862
801,9.679865,-14.78914,-1.6381862
802,9.679865,-14.78914,-1.6381862
803,9.679865,-14.78914,-1.6381862
804,4.927121,-14.966507,2.7406793
805,4.927121,-14.966507,2.7406793
806,7.207481,-12.029616,-3.434897
807,6.105586,-11.617453,-5.1619167
808,2.57707,-12.388839,-5.142774
809,-6.5521464,-18.286549,-2.0479572
810,-6.5521464,-18.286549,-2.0479572
811,-7.361818,-19.510777,-3.9834516
812,-8.154739,-20.205294,-4.476971
813,-4.5424747,-15.20579,2.1275184
814,-4.5424747,-15.20579,2.1275184
815,-4.5424747,-15.20579,2.1275184
816,-4.5424747,-15.20579,2.1275184
817,-5.1460643,-10.819746,-4.4985065
818,-5.1460643,-10.819746,-4.4985065
819,-5.1460643,-10.819746,-4.4985065
820,-5.1460643,-10.819746,-4.4985065
821,-1.0929217,-7.775178,-4.7309093
822,4.371388,-5.8298135,-1.6070795
823,4.371388,-5.8298135,-1.6070795
824,4.371388,-5.8298135,-1.6070795
825,4.371388,-5.8298135,-1.6070795
826,5.3799624,-5.3964133,-1.7676977
827,5.3799624,-5.3964133,-1.7676977
828,5.3799624,-5.3964133,-1.7676977
829,5.3799624,-5.3964133,-1.7676977
830,5.3799624,-5.3964133,-1.7676977
831,5.3799624,-5.3964133,-1.7676977
832,-2.038984,2.9760733,-3.2336006
833,-2.038984,2.9760733,-3.2336006
834,-2.038984,2.9760733,-3.2336006
835,-2.475076,3.1435707,-2.7927232
836,-3.1193435,3.7833517,-1.4536397
837,-1.8667008,3.821637,-0.102592275
838,-3.0978081,-8.855537,11.944372
839,-3.0978081,-8.855537,11.944372
840,-3.0978081,-8.855537,11.944372
841,-3.0978081,-8.855537,11.944372
842,-8.566903,-35.76163,28.607391
843,-8.566903,-35.76163,28.607391
844,-8.566903,-35.76163,28.607391
845,-1.3301103,-31.912178,20.920149
846,-0.77677006,-19.364515,6.652645
847,-2.5205395,-14.341084,6.5569324
848,-10.363315,-8.199007,0.11515459
849,-14.349459,-8.079366,-5.391927
850,-16.036098,-9.648459,-0.6008976
851,-7.5320077,-12.935001,6.5422764
852,-7.5320077,-12.935001,6.5422764
853,-3.802195,-13.680066,8.794222
854,8.22802,-11.689238,-11.876476
855,9.279665,-8.45773,-16.887943
856,2.5722845,-6.9990063,-10.08485
857,-1.1407782,-7.3079796,-3.8060834
858,-1.4856437,-8.155936,3.7660038
859,0.24855445,-8.563314,0.09840483
860,2.6321049,-9.066106,-9.696614
861,1.1087742,-9.926326,-1.4033905
862,1.1087742,-9.926326,-1.4033905
863,1.1087742,-9.926326,-1.4033905
864,1.1087742,-9.926326,-1.4033905
865,4.098307,-13.080963,1.0591232
866,4.098307,-13.080963,1.0591232
867,4.098307,-13.080963,1.0591232
868,4.718646,-13.112369,0.7932207
869,4.1437707,-12.434303,0.6831509
870,1.9328024,-9.9191475,-0.095413804
871,1.9328024,-9.9191475,-0.095413804
872,-1.3731811,-6.4384875,1.198206
873,-2.8151557,-5.005785,1.2029916
874,-2.8151557,-5.005785,1.2029916
875,-2.8151557,-5.005785,1.2029916
876,-2.8151557,-5.005785,1.2029916
877,-2.8151557,-5.005785,1.2029916
878,-2.8151557,-5.005785,1.2029916
879,-2.8151557,-5.005785,1.2029916
880,-2.8151557,-5.005785,1.2029916
881,-2.882155,-13.658531,4.6522455
882,-2.882155,-13.658531,4.6522455
883,-2.882155,-13.658531,4.6522455
884,2.3327029,-12.412767,7.373782
885,2.3327029,-12.412767,7.373782
886,4.843073,-11.924033,4.5565324
887,5.9620166,-12.695419,-0.17706887
888,4.8095737,-13.524234,-0.5482555
889,-0.13220344,-13.021143,6.7986073
890,-0.38614175,-12.865609,7.021439
891,0.98644114,-12.513266,5.133801
892,5.631209,-12.024831,-1.2550355
893,9.895219,-14.12543,-0.48364928
894,9.895219,-14.12543,-0.48364928
895,9.207881,-14.578272,1.7922242
896,-1.11685,-16.379768,4.0414777
897,-1.11685,-16.379768,4.0414777
898,-1.11685,-16.379768,4.0414777
899,-1.11685,-16.379768,4.0414777
900,2.277668,-14.18555,2.7693932
901,3.8850467,-13.919647,0.36909288
902,5.537889,-12.467802,-4.7620163
903,-2.7338,-15.220146,-2.1963122
904,-2.7338,-15.220146,-2.1963122
905,-4.467998,-17.194225,-2.9126635
906,-6.9281187,-19.867607,-3.3631122
907,-6.9281187,-19.867607,-3.3631122
908,-7.031309,-19.656738,-2.6347969
909,-6.954739,-18.231514,0.5775676
910,-6.348458,-17.098213,2.094019
911,-4.8179483,-14.777175,-0.41156548
912,-4.8179483,-14.777175,-0.41156548
913,-4.8179483,-14.777175,-0.41156548
914,-4.959125,-12.745669,-0.8572287
915,-4.5544386,-12.065509,-1.422533
916,-3.7543387,-9.739387,-3.784548
917,0.42592242,-7.25773,-3.9930227
918,1.4679967,-6.553343,-2.0431714
919,1.4608182,-6.3568325,-1.4874383
920,4.0719857,-5.5830536,-1.5759728
921,5.032405,-5.6838512,-1.9160527
922,4.816752,-5.408377,-1.6357933
923,4.17727,-3.7268212,-3.135495
924,4.17727,-3.7268212,-3.135495
925,-0.9346963,0.7049854,-5.1212387
926,-0.9346963,0.7049854,-5.1212387
927,-0.9346963,0.7049854,-5.1212387
928,-0.9346963,0.7049854,-5.1212387
929,-3.2799616,3.5174494,-2.3042881
930,-3.2799616,3.5174494,-2.3042881
931,-3.2799616,3.5174494,-2.3042881
932,-3.2799616,3.5174494,-2.3042881
933,-3.4307094,3.3544383,-0.88354975
934,-1.2364911,1.0594223,0.6855437
935,-1.4569299,-6.1100726,5.6464634
936,-1.4569299,-6.1100726,5.6464634
937,-6.6215386,-21.508484,23.526531
938,-6.6215386,-21.508484,23.526531
939,0.06909275,-18.169,9.486345
940,0.06909275,-18.169,9.486345
941,0.06909275,-18.169,9.486345
942,0.06909275,-18.169,9.486345
943,-12.857234,-11.346765,1.4518452
944,-12.857234,-11.346765,1.4518452
945,-12.857234,-11.346765,1.4518452
946,-12.857234,-11.346765,1.4518452
947,-12.857234,-11.346765,1.4518452
948,-4.5544386,-17.647066,3.9553359
949,-4.5544386,-17.647066,3.9553359
950,0.85483587,-16.039688,-0.7375876
951,-1.3082758,-6.1582284,-1.8873389
952,-1.3082758,-6.1582284,-1.8873389
953,-1.3082758,-6.1582284,-1.8873389
954,-4.393821,-6.483951,6.628717
955,-3.2943187,-7.305587,3.5958142
956,-0.38374892,-8.141579,-6.1848483
957,2.5531418,-8.127222,-15.520146
958,1.6067804,-8.510373,-10.27149
959,0.40438703,-8.709276,-8.094022
960,2.3709881,-12.664313,4.034299
961,2.3709881,-12.664313,4.034299
962,2.3709881,-12.664313,4.034299
963,2.3709881,-12.664313,4.034299
964,2.3709881,-12.664313,4.034299
965,2.3709881,-12.664313,4.034299
966,2.3709881,-12.664313,4.034299
967,2.3709881,-12.664313,4.034299
968,2.3709881,-12.664313,4.034299
969,2.3709881,-12.664313,4.034299
970,-1.4042878,-4.2610188,-0.8380861
971,-1.4042878,-4.2610188,-0.8380861
972,-1.4042878,-4.2610188,-0.8380861
973,-2.012663,-4.7976093,-4.56072
974,-2.012663,-4.7976093,-4.56072
975,-2.8630123,-6.893423,-2.9126635
976,-2.8630123,-6.893423,-2.9126635
977,-4.0154557,-15.328123,7.6827555
978,-4.0154557,-15.328123,7.6827555
979,-4.0154557,-15.328123,7.6827555
980,-4.0154557,-15.328123,7.6827555
981,4.2107697,-13.028321,-3.8635113
982,4.2107697,-13.028321,-3.8635113
983,4.2107697,-13.028321,-3.8635113
984,4.2107697,-13.028321,-3.8635113
985,4.7401814,-13.284652,3.8377883
986,4.7401814,-13.284652,3.8377883
987,4.7401814,-13.284652,3.8377883
988,7.461419,-13.668102,-1.3268201
989,7.461419,-13.668102,-1.3268201
990,8.987442,-13.519448,-2.7017958
991,7.88794,-13.943576,1.0160524
992,2.2944179,-14.55913,4.240381
993,2.2944179,-14.55913,4.240381
994,2.2944179,-14.55913,4.240381
995,2.2944179,-14.55913,4.240381
996,5.8564334,-12.961322,0.28773692
997,5.8564334,-12.961322,0.28773692
998,5.4876394,-12.879966,-1.0226326
999,1.2547364,-14.444274,-6.2327046
1000,1.2547364,-14.444274,-6.2327046
1001,-0.4531408,-15.696917,-5.906982
1002,-5.38086,-19.944178,-4.1294136
1003,-6.5401826,-19.026829,1.8089739
1004,-6.5401826,-19.026829,1.8089739
1005,-6.5401826,-19.026829,1.8089739
1006,-6.5401826,-19.026829,1.8089739
1007,-5.541179,-17.694923,-0.6200402
1008,-5.445466,-17.414663,-0.7160522
1009,-6.38435,-14.844174,-0.51475596
1010,-6.38435,-14.844174,-0.51475596
1011,-4.877769,-9.495019,-3.9810586
1012,-4.877769,-9.495019,-3.9810586
1013,-0.88683987,-5.75085,-1.3698909
1014,-0.88683987,-5.75085,-1.3698909
1015,-0.88683987,-5.75085,-1.3698909
1016,1.9232312,-4.9938207,-2.1867409
1017,3.8635113,-4.807181,-3.2647073
1018,4.814359,-3.6762729,-2.673082
1019,4.241876,-1.8364913,-3.1546376
1020,4.241876,-1.8364913,-3.1546376
1021,2.7113671,0.03678965,-3.9020956
1022,2.7113671,0.03678965,-3.9020956
1023,-2.3024936,3.0693932,-3.3340993
1024,-2.3024936,3.0693932,-3.3340993
1025,-2.3024936,3.0693932,-3.3340993
1026,-2.3072793,3.074179,-3.353242
1027,-2.5325036,3.2201412,-3.2814572
1028,-1.727618,3.481258,-1.6142579
1029,-0.10109676,0.32183465,-0.31345975
1030,-0.10109676,0.32183465,-0.31345975
1031,-1.076172,-7.4012995,6.1567326
1032,-1.076172,-7.4012995,6.1567326
1033,-3.399603,-12.048759,14.519349
1034,-6.113662,-22.665415,21.45674
1035,0.26291138,-18.825533,10.382458
1036,0.26291138,-18.825533,10.382458
1037,0.26291138,-18.825533,10.382458
1038,0.26291138,-18.825533,10.382458
1039,-0.08673982,-9.499805,7.5723863
1040,-2.6401806,-1.1946167,3.8114674
1041,-4.4081774,0.43908295,0.2638087
1042,-11.079666,-4.2511487,-1.8634106
1043,-10.849656,-13.986647,-1.9088743
1044,-10.440185,-19.069899,8.437391
1045,-10.440185,-19.069899,8.437391
1046,-3.1097722,-22.318155,10.432707
1047,4.3929234,-18.174086,-5.796912
1048,-2.4272194,-6.24437,7.9941216
1049,-2.4272194,-6.24437,7.9941216
1050,-2.4272194,-6.24437,7.9941216
1051,-2.4272194,-6.24437,7.9941216
1052,2.716153,-6.5677,-12.291033
1053,2.9892337,-6.68764,-14.394323
1054,0.8138588,-8.050652,-11.814262
1055,0.6583253,-8.100901,-10.712368
1056,-0.5395815,-9.787243,-4.6372905
1057,-0.26171497,-10.409975,-3.216851
1058,1.1135598,-12.24497,-0.663111
1059,1.6211374,-13.133904,0.7405786
1060,2.3015962,-13.371093,2.024627
1061,3.3269207,-12.846467,2.8749764
1062,3.3269207,-12.846467,2.8749764
1063,3.3269207,-12.846467,2.8749764
1064,1.1183455,-7.264909,0.98016
1065,-0.046061836,-5.8683977,0.9873384
1066,-4.1997027,-4.692026,-2.3665016
1067,-4.1997027,-4.692026,-2.3665016
1068,-4.1997027,-4.692026,-2.3665016
1069,-4.1997027,-4.692026,-2.3665016
1070,-3.888337,-5.499305,-3.5521452
1071,-3.888337,-5.499305,-3.5521452
1072,-3.5817564,-7.5068827,-1.1590235
1073,-2.9566314,-12.472588,2.9132617
1074,-2.9566314,-12.472588,2.9132617
1075,-2.6090739,-13.423735,4.1180477
1076,-0.12263216,-13.883456,7.970193
1077,1.4153546,-13.275081,10.147662
1078,4.2777686,-12.966107,-4.476971
1079,4.2777686,-12.966107,-4.476971
1080,4.2777686,-12.966107,-4.476971
1081,2.6344976,-12.973287,0.1274178
1082,0.13130614,-12.240185,6.815656
1083,0.8811569,-12.21865,5.718248
1084,9.363414,-13.622639,-1.3674982
1085,9.363414,-13.622639,-1.3674982
1086,9.363414,-13.622639,-1.3674982
1087,9.77797,-14.082359,0.61824554
1088,0.91226363,-19.445871,6.0370917
1089,0.91226363,-19.445871,6.0370917
1090,0.91226363,-19.445871,6.0370917
1091,3.7674992,-16.020247,6.4441705
1092,3.7674992,-16.020247,6.4441705
1093,5.5713882,-11.562418,-3.8156548
1094,5.5713882,-11.562418,-3.8156548
1095,-3.2009985,-13.481163,-2.4358935
1096,-3.2009985,-13.481163,-2.4358935
1097,-3.2009985,-13.481163,-2.4358935
1098,-6.937989,-17.848064,-3.0586255
1099,-7.7234335,-19.773987,-4.510471
1100,-8.569296,-21.491735,-3.0562327
1101,-7.457531,-20.109581,-0.7686943
1102,-5.0309095,-17.826529,1.7778672
1103,-7.266105,-14.041681,-2.225026
1104,-7.266105,-14.041681,-2.225026
1105,-7.266105,-14.041681,-2.225026
1106,-7.266105,-14.041681,-2.225026
1107,0.35653058,-7.365407,-2.85045
1108,0.35653058,-7.365407,-2.85045
1109,0.35653058,-7.365407,-2.85045
1110,5.154738,-5.899504,-1.7458632
1111,5.154738,-5.899504,-1.7458632
1112,5.154738,-5.899504,-1.7458632
1113,5.197809,-5.0754757,-1.1685947
1114,5.1089754,-4.912465,-1.1446666
1115,4.289733,-3.990331,-2.2345972
1116,1.259522,0.25932217,-4.814658
1117,1.259522,0.25932217,-4.814658
1118,0.91226363,0.5276174,-4.9776692
1119,-2.6138597,3.804887,-4.3594236
1120,-2.6138597,3.804887,-4.3594236
1121,-2.6138597,3.804887,-4.3594236
1122,-3.8500516,4.080361,-2.8863423
1123,-3.8500516,4.080361,-2.8863423
1124,-2.8438697,3.7088752,-1.262214
1125,-0.6089734,0.79112697,-2.8624141
1126,-4.2427735,-12.326626,17.885153
1127,-4.2427735,-12.326626,17.885153
1128,-4.2427735,-12.326626,17.885153
1129,-6.724729,-18.708284,24.992434
1130,-1.8571295,-30.072397,18.323637
1131,-1.8571295,-30.072397,18.323637
1132,-1.8571295,-30.072397,18.323637
1133,1.2810575,-19.022043,9.910473
1134,1.2810575,-19.022043,9.910473
1135,1.2810575,-19.022043,9.910473
1136,1.2810575,-19.022043,9.910473
1137,1.2810575,-19.022043,9.910473
1138,1.2810575,-19.022043,9.910473
1139,1.2810575,-19.022043,9.910473
1140,1.2810575,-19.022043,9.910473
1141,4.1437707,-16.540087,-7.315457
1142,6.227919,-14.736497,-14.324633
1143,6.227919,-14.736497,-14.324633
1144,0.03798606,-9.370592,-3.2718859
1145,-0.11066805,-8.800203,1.6531414
1146,2.3757737,-7.7871423,-6.707082
1147,3.5712879,-7.913962,-11.375778
1148,3.5712879,-7.913962,-11.375778
1149,3.5712879,-7.913962,-11.375778
1150,3.5712879,-7.913962,-11.375778
1151,0.4235296,-9.396914,1.4976078
1152,1.0486546,-10.936995,4.1276193
1153,1.0486546,-10.936995,4.1276193
1154,2.656033,-10.436595,0.29012975
1155,2.656033,-10.436595,0.29012975
1156,2.656033,-10.436595,0.29012975
1157,-1.68694,-6.136693,0.7692925
1158,-1.68694,-6.136693,0.7692925
1159,-1.68694,-6.136693,0.7692925
1160,-1.68694,-6.136693,0.7692925
1161,-3.0403802,-5.686244,0.47946185
1162,-3.0403802,-5.686244,0.47946185
1163,-2.556432,-5.933004,-2.687439
1164,-2.556432,-5.933004,-2.687439
1165,-2.3865414,-5.7436714,-4.6950173
1166,-2.3865414,-5.7436714,-4.6950173
1167,-1.9193429,-10.805388,2.0700908
1168,-1.9193429,-10.805388,2.0700908
1169,-1.9193429,-10.805388,2.0700908
1170,-2.077269,-12.841681,3.7851462
1171,0.6798607,-14.659628,7.795218
1172,0.6798607,-14.659628,7.795218
1173,3.1280174,-11.63181,3.4307094
1174,3.1280174,-11.63181,3.4307094
1175,0.50488555,-15.177075,-0.9604192
1176,0.50488555,-15.177075,-0.9604192
1177,0.50488555,-15.177075,-0.9604192
1178,0.50488555,-15.177075,-0.9604192
1179,6.673283,-13.890934,0.41724846
1180,6.673283,-13.890934,0.41724846
1181,8.192127,-15.014364,0.7477571
1182,8.192127,-15.014364,0.7477571
1183,3.5377884,-15.871892,4.5613184
1184,3.5377884,-15.871892,4.5613184
1185,-2.3455644,-18.070896,7.2873416
1186,-2.3455644,-18.070896,7.2873416
1187,6.9822564,-12.446267,-1.2837493
1188,6.9822564,-12.446267,-1.2837493
1189,6.9822564,-12.446267,-1.2837493
1190,-2.297708,-15.270695,-2.6563323
1191,-2.297708,-15.270695,-2.6563323
1192,-2.297708,-15.270695,-2.6563323
1193,-2.297708,-15.270695,-2.6563323
1194,-2.297708,-15.270695,-2.6563323
1195,-6.497112,-20.255543,-4.060022
1196,-6.497112,-20.255543,-4.060022
1197,-5.5627146,-17.673388,1.9812572
1198,-5.5483575,-14.005789,-1.0010972
1199,-5.5483575,-14.005789,-1.0010972
1200,-5.5483575,-14.005789,-1.0010972
1201,-5.5483575,-14.005789,-1.0010972
1202,-0.9921241,-6.4480586,-1.3172488
1203,-0.9921241,-6.4480586,-1.3172488
1204,-0.9921241,-6.4480586,-1.3172488
1205,-0.05802595,-5.9090757,-1.0345967
1206,1.6115661,-5.6934223,-1.6357933
1207,4.060022,-5.015356,-1.9878374
1208,4.060022,-5.015356,-1.9878374
1209,4.060022,-5.015356,-1.9878374
1210,4.060022,-5.015356,-1.9878374
1211,2.33031,-2.4164517,-4.234997
1212,2.33031,-2.4164517,-4.234997
1213,-2.8749764,2.096711,-4.0241294
1214,-2.8749764,2.096711,-4.0241294
1215,-2.8749764,2.096711,-4.0241294
1216,-2.8749764,2.096711,-4.0241294
1217,-4.961518,3.7016966,-1.3483555
1218,-4.961518,3.7016966,-1.3483555
1219,-4.961518,3.7016966,-1.3483555
1220,-4.961518,3.7016966,-1.3483555
1221,-0.70229346,3.2153554,-0.51475596
1222,-0.26889345,0.19232312,-1.4656038
1223,-0.26889345,0.19232312,-1.4656038
1224,-4.4799623,-18.86621,24.22374
1225,-4.4799623,-18.86621,24.22374
1226,-7.6803627,-33.404404,22.170698
1227,0.035593238,-21.889242,10.4566345
1228,0.035593238,-21.889242,10.4566345
1229,0.035593238,-21.889242,10.4566345
1230,0.035593238,-21.889242,10.4566345
1231,-6.3676,-7.9163547,2.1490538
1232,-6.3676,-7.9163547,2.1490538
1233,-4.532903,-9.765707,-7.1455665
1234,-4.532903,-9.765707,-7.1455665
1235,-4.063312,-9.914362,2.472384
1236,-4.063312,-9.914362,2.472384
1237,-4.063312,-9.914362,2.472384
1238,-4.063312,-9.914362,2.472384
1239,4.364209,-8.836395,-13.534403
1240,4.364209,-8.836395,-13.534403
1241,4.364209,-8.836395,-13.534403
1242,4.364209,-8.836395,-13.534403
1243,4.136592,-8.639884,-12.664612
1244,4.136592,-8.639884,-12.664612
1245,2.7305098,-7.92114,-2.618047
1246,4.2634115,-9.097511,0.22791636
1247,4.174877,-10.122537,1.7033906
1248,3.784548,-11.512169,3.152843
1249,3.757928,-11.603096,3.2078779
1250,3.094518,-11.444871,1.8448663
1251,2.4789643,-10.07468,0.73100734
1252,0.72053874,-7.430013,0.06969096
1253,-3.8835511,-4.59392,0.22073789
1254,-3.8835511,-4.59392,0.22073789
1255,-3.8835511,-4.59392,0.22073789
1256,-3.8835511,-4.59392,0.22073789
1257,-4.3268213,-4.912465,-1.1853445
1258,-4.8729835,-5.3389854,-3.7295132
1259,-4.8729835,-5.3389854,-3.7295132
1260,-3.045166,-11.123934,-0.62721866
1261,-3.045166,-11.123934,-0.62721866
1262,-3.045166,-11.123934,-0.62721866
1263,-1.7012969,-15.668202,4.453641
1264,-1.7012969,-15.668202,4.453641
1265,-1.7012969,-15.668202,4.453641
1266,-1.7012969,-15.668202,4.453641
1267,1.0247263,-9.573982,0.19202402
1268,1.0247263,-9.573982,0.19202402
1269,1.0247263,-9.573982,0.19202402
1270,-0.9131609,-11.959926,-0.84047896
1271,3.674179,-14.132608,5.0572305
1272,3.674179,-14.132608,5.0572305
1273,6.7381887,-13.610375,0.8243274
1274,6.7381887,-13.610375,0.8243274
1275,6.7381887,-13.610375,0.8243274
1276,6.7381887,-13.610375,0.8243274
1277,-3.1432717,-16.437197,8.0013
1278,-3.1432717,-16.437197,8.0013
1279,-3.1432717,-16.437197,8.0013
1280,-3.1432717,-16.437197,8.0013
1281,6.491429,-10.747961,-6.6089764
1282,6.491429,-10.747961,-6.6089764
1283,6.491429,-10.747961,-6.6089764
1284,6.491429,-10.747961,-6.6089764
1285,-6.916155,-20.689241,-2.6036901
1286,-6.916155,-20.689241,-2.6036901
1287,-6.916155,-20.689241,-2.6036901
1288,-6.916155,-20.689241,-2.6036901
1289,-9.098708,-21.276081,0.18005991
1290,-9.098708,-21.276081,0.18005991
1291,-7.218249,-17.975183,0.9849456
1292,-6.5808606,-17.306688,0.44117668
1293,-5.388038,-15.055042,0.031405795
1294,-5.388038,-15.055042,0.031405795
1295,-6.3628144,-11.981462,-1.7458632
1296,-6.3628144,-11.981462,-1.7458632
1297,-6.3628144,-11.981462,-1.7458632
1298,-1.5550356,-7.6983085,-3.406183
1299,2.5507488,-5.973682,-2.1101704
1300,2.5507488,-5.973682,-2.1101704
1301,2.5507488,-5.973682,-2.1101704
1302,2.5507488,-5.973682,-2.1101704
1303,3.9831524,-5.508876,-2.1269202
1304,3.9831524,-5.508876,-2.1269202
1305,3.5856447,-4.2128634,-2.1125634
1306,2.996412,-2.236691,-3.0825539
1307,0.8596215,0.57816577,-5.51426
1308,0.8596215,0.57816577,-5.51426
1309,0.8596215,0.57816577,-5.51426
1310,-1.0977074,2.8034909,-3.691228
1311,-2.757728,3.4166517,-3.1929228
1312,-2.757728,3.4166517,-3.1929228
1313,-2.0030916,3.016751,1.2747762
1314,-2.0030916,3.016751,1.2747762
1315,0.29671,-3.1492536,0.74536425
1316,0.29671,-3.1492536,0.74536425
1317,-5.299205,-22.159931,20.251953
1318,-5.299205,-22.159931,20.251953
1319,-5.299205,-22.159931,20.251953
1320,-5.299205,-22.159931,20.251953
1321,-0.18484555,-16.403696,9.898509
1322,-0.18484555,-16.403696,9.898509
1323,-0.18484555,-16.403696,9.898509
1324,-9.62812,-9.986146,-8.9348
1325,-9.62812,-9.986146,-8.9348
1326,-9.62812,-9.986146,-8.9348
1327,-9.62812,-9.986146,-8.9348
1328,-8.950054,-12.055938,-5.142774
1329,-9.0747795,-14.288442,8.423035
1330,3.7555351,-10.83171,-12.417852
1331,3.7555351,-10.83171,-12.417852
1332,3.7555351,-10.83171,-12.417852
1333,3.7555351,-10.83171,-12.417852
1334,-1.9265213,-8.088937,2.949154
1335,3.2213376,-7.880462,-15.603895
1336,3.2213376,-7.880462,-15.603895
1337,3.2213376,-7.880462,-15.603895
1338,3.2213376,-7.880462,-15.603895
1339,0.8979067,-9.914362,-2.1077776
1340,0.8979067,-9.914362,-2.1077776
1341,0.8979067,-9.914362,-2.1077776
1342,1.6429719,-11.797214,1.6004993
1343,2.5746772,-13.318151,5.150551
1344,2.5746772,-13.318151,5.150551
1345,2.7113671,-10.558629,2.1658037
1346,2.7113671,-10.558629,2.1658037
1347,-0.7716853,-5.3700924,0.4459623
1348,-0.7716853,-5.3700924,0.4459623
1349,-0.7716853,-5.3700924,0.4459623
1350,-0.7716853,-5.3700924,0.4459623
1351,-3.370889,-4.248756,-1.178166
1352,-3.370889,-4.248756,-1.178166
1353,-1.5454643,-6.270691,-4.3522453
1354,-1.5454643,-6.270691,-4.3522453
1355,-1.5454643,-6.270691,-4.3522453
1356,-1.5454643,-6.270691,-4.3522453
1357,-1.9073788,-15.20579,5.5651073
1358,-1.9073788,-15.20579,5.5651073
1359,-1.9073788,-15.20579,5.5651073
1360,-1.9073788,-15.20579,5.5651073
1361,0.07627122,-12.5686,11.053046
1362,0.07627122,-12.5686,11.053046
1363,1.7099708,-9.876077,3.2270205
1364,2.0668006,-9.581161,1.6196418
1365,1.3938192,-10.628021,-4.4985065
1366,5.0515475,-13.763815,-0.5602196
1367,5.0515475,-13.763815,-0.5602196
1368,5.0515475,-13.763815,-0.5602196
1369,5.0515475,-13.763815,-0.5602196
1370,8.414959,-14.132608,-3.0900314
1371,5.7152567,-14.55195,3.0352955
1372,5.7152567,-14.55195,3.0352955
1373,0.33020952,-15.905391,6.515955
1374,-2.8199415,-17.127226,5.5722857
1375,-2.2378874,-17.184654,5.7397833
1376,2.0620148,-16.233507,5.979365
1377,7.133303,-11.452049,0.35473597
1378,7.133303,-11.452049,0.35473597
1379,-1.1359925,-13.200904,-4.002594
1380,-1.1359925,-13.200904,-4.002594
1381,-1.1359925,-13.200904,-4.002594
1382,-1.1359925,-13.200904,-4.002594
1383,-6.068198,-18.90928,-2.5941188
1384,-6.329315,-19.22304,1.9453648
1385,-6.329315,-19.22304,1.9453648
1386,-6.329315,-19.22304,1.9453648
1387,-4.1781673,-16.54248,0.9128618
1388,-4.1781673,-16.54248,0.9128618
1389,-4.4488554,-11.801999,-4.275675
1390,-4.4488554,-11.801999,-4.275675
1391,-4.4488554,-11.801999,-4.275675
1392,-4.4488554,-11.801999,-4.275675
1393,2.8286154,-5.020142,-1.6381862
1394,2.8286154,-5.020142,-1.6381862
1395,2.8286154,-5.020142,-1.6381862
1396,2.8286154,-5.020142,-1.6381862
1397,2.8286154,-5.020142,-1.6381862
1398,3.8491542,-4.694419,-1.9471594
1399,4.284947,-3.8464625,-2.2082763
1400,4.284947,-3.8464625,-2.2082763
1401,2.629712,-2.1194427,-3.4205399
1402,2.629712,-2.1194427,-3.4205399
1403,0.0738784,0.56111693,-5.104489
1404,0.0738784,0.56111693,-5.104489
1405,0.0738784,0.56111693,-5.104489
1406,0.0738784,0.56111693,-5.104489
1407,-2.990131,3.3400812,-3.0610185
1408,-1.5717853,1.7925233,-3.336492
1409,-1.5717853,1.7925233,-3.336492
1410,-1.5717853,1.7925233,-3.336492
1411,-1.5717853,1.7925233,-3.336492
1412,-4.631009,-23.422443,25.454847
1413,-4.631009,-23.422443,25.454847
1414,-4.631009,-23.422443,25.454847
1415,-4.631009,-23.422443,25.454847
1416,-1.076172,-11.622239,6.003293
1417,-1.076172,-11.622239,6.003293
1418,-1.076172,-11.622239,6.003293
1419,-1.076172,-11.622239,6.003293
1420,-6.8946195,-9.727423,-2.4909284
1421,-6.8946195,-9.727423,-2.4909284
1422,-6.8946195,-9.727423,-2.4909284
1423,-0.43878385,-19.525133,4.705187
1424,-0.43878385,-19.525133,4.705187
1425,-0.43878385,-19.525133,4.705187
1426,-0.43878385,-19.525133,4.705187
1427,-3.1767712,-8.620742,6.4824557
1428,-3.1767712,-8.620742,6.4824557
1429,-3.1767712,-8.620742,6.4824557
1430,-3.1767712,-8.620742,6.4824557
1431,2.11705,-7.322336,-14.188242
1432,2.11705,-7.322336,-14.188242
1433,1.314557,-7.231409,-11.842977
1434,0.811466,-7.2936225,-10.733903
1435,-0.21834506,-9.746565,-1.3004991
1436,-0.21834506,-9.746565,-1.3004991
1437,-0.21834506,-9.746565,-1.3004991
1438,0.40917268,-12.642777,3.4019957
1439,3.3819556,-11.41855,0.79800636
1440,3.3819556,-11.41855,0.79800636
1441,3.3819556,-11.41855,0.79800636
1442,3.3819556,-11.41855,0.79800636
1443,-2.4678974,-3.9278183,1.8161523
1444,-2.4678974,-3.9278183,1.8161523
1445,-2.4678974,-3.9278183,1.8161523
1446,-2.4678974,-3.9278183,1.8161523
1447,-2.4678974,-3.9278183,1.8161523
1448,-2.9973094,-4.7952166,-3.9978085
1449,-2.9973094,-4.7952166,-3.9978085
1450,-2.9973094,-4.7952166,-3.9978085
1451,-2.9973094,-4.7952166,-3.9978085
1452,-3.2033913,-14.245371,3.6870406
1453,-3.2033913,-14.245371,3.6870406
1454,-3.2033913,-14.245371,3.6870406
1455,-3.2033913,-14.245371,3.6870406
1456,1.3504493,-14.645271,11.163415
1457,1.3504493,-14.645271,11.163415
1458,3.4657044,-11.885748,2.7071798
1459,3.0059834,-10.927423,-3.3990045
1460,3.0059834,-10.927423,-3.3990045
1461,3.0059834,-10.927423,-3.3990045
1462,3.0059834,-10.927423,-3.3990045
1463,1.7913269,-13.023536,2.187339
1464,1.7913269,-13.023536,2.187339
1465,1.7913269,-13.023536,2.187339
1466,1.7913269,-13.023536,2.187339
1467,1.7913269,-13.023536,2.187339
1468,1.7913269,-13.023536,2.187339
1469,1.7913269,-13.023536,2.187339
1470,1.7913269,-13.023536,2.187339
1471,0.30149564,-16.365412,7.0839515
1472,6.0601225,-13.145868,-1.7557336
1473,6.0601225,-13.145868,-1.7557336
1474,6.0984077,-12.642777,-2.780759
1475,4.845765,-11.770893,-5.011169
1476,0.89072824,-12.295519,-5.5094743
1477,-8.978767,-21.321545,-5.45414
1478,-8.978767,-21.321545,-5.45414
1479,-8.978767,-21.321545,-5.45414
1480,-7.4359956,-18.725033,0.7908279
1481,-7.4359956,-18.725033,0.7908279
1482,-5.296812,-16.425232,3.3397822
1483,-4.681258,-15.582061,2.5971098
1484,-4.458427,-15.335301,0.15134603
1485,-5.8046885,-14.429917,-0.7686943
1486,-5.823831,-13.7374935,-1.5424733
1487,-6.331708,-12.94218,-2.4143581
1488,-3.3086755,-9.552447,-5.3943195
1489,-3.3086755,-9.552447,-5.3943195
1490,0.18394823,-6.000003,-1.4560326
1491,0.50488555,-5.779564,-1.3507484
1492,0.50488555,-5.779564,-1.3507484
1493,3.5736806,-2.5384858,-3.0107691
1494,3.5736806,-2.5384858,-3.0107691
1495,3.5736806,-2.5384858,-3.0107691
1496,3.5736806,-2.5384858,-3.0107691
1497,1.8774685,-0.6963114,-4.0552363
1498,1.8774685,-0.6963114,-4.0552363
1499,-0.9275179,1.8451654,-4.1751766
1500,-0.9275179,1.8451654,-4.1751766
1501,-3.5578282,3.1004999,-3.0634112
1502,-3.5578282,3.1004999,-3.0634112
1503,-3.5578282,3.1004999,-3.0634112
1504,-0.2641078,-0.49262238,-3.2671003
1505,-0.2641078,-0.49262238,-3.2671003
1506,-0.2641078,-0.49262238,-3.2671003
1507,-0.2641078,-0.49262238,-3.2671003
1508,-3.4307094,-10.323833,14.782858
1509,-3.4307094,-10.323833,14.782858
1510,-8.145168,-33.00929,25.095625
1511,-8.145168,-33.00929,25.095625
1512,-0.48424748,-13.723137,5.823831
1513,-0.48424748,-13.723137,5.823831
1514,-0.48424748,-13.723137,5.823831
1515,-0.48424748,-13.723137,5.823831
1516,-8.868698,-9.717851,-1.4560326
1517,-10.1237335,-16.391733,8.216953
1518,-10.1237335,-16.391733,8.216953
1519,-1.0450653,-12.999607,3.2341988
1520,-1.0450653,-12.999607,3.2341988
1521,4.428816,-4.529314,-15.292529
1522,4.428816,-4.529314,-15.292529
1523,-5.3306108,-5.3219366,1.0950154
1524,-5.3306108,-5.3219366,1.0950154
1525,-5.3306108,-5.3219366,1.0950154
1526,-5.3306108,-5.3219366,1.0950154
1527,0.25573292,-10.544272,-8.9877405
1528,0.25573292,-10.544272,-8.9877405
1529,0.71336025,-11.792428,-2.6778677
1530,5.0587263,-14.175979,3.1049864
1531,5.0587263,-14.175979,3.1049864
1532,5.0587263,-14.175979,3.1049864
1533,5.0587263,-14.175979,3.1049864
1534,5.0587263,-14.175979,3.1049864
1535,2.8405795,-11.1478615,1.4015958
1536,-1.1814562,-6.469594,-0.0020937198
1537,-1.1814562,-6.469594,-0.0020937198
1538,-1.1814562,-6.469594,-0.0020937198
1539,-1.1814562,-6.469594,-0.0020937198
1540,-1.1814562,-6.469594,-0.0020937198
1541,-4.130311,-4.5388856,-0.104985096
1542,-4.130311,-4.5388856,-0.104985096
1543,-4.130311,-4.5388856,-0.104985096
1544,-2.3168504,-5.6240306,-4.301996
1545,-1.1575279,-7.1784678,-4.517649
1546,-1.1575279,-7.1784678,-4.517649
1547,-2.1158533,-11.847463,2.024627
1548,-2.1158533,-11.847463,2.024627
1549,-2.1158533,-11.847463,2.024627
1550,-2.1158533,-11.847463,2.024627
1551,0.1576272,-12.853645,8.446963
1552,0.1576272,-12.853645,8.446963
1553,0.1576272,-12.853645,8.446963
1554,0.1576272,-12.853645,8.446963
1555,2.3542383,-12.4630165,0.94426763
1556,2.3542383,-12.4630165,0.94426763
1557,2.3542383,-12.4630165,0.94426763
1558,2.3542383,-12.4630165,0.94426763
1559,8.139485,-12.060723,-3.065804
1560,8.139485,-12.060723,-3.065804
1561,9.040084,-13.747066,0.762114
1562,9.040084,-13.747066,0.762114
1563,-2.6473591,-16.73899,5.9985075
1564,-2.6473591,-16.73899,5.9985075
1565,-2.6473591,-16.73899,5.9985075
1566,0.9385847,-14.583057,5.035695
1567,0.9385847,-14.583057,5.035695
1568,6.0361943,-12.6116705,-0.5482555
1569,6.0361943,-12.6116705,-0.5482555
1570,-1.2197413,-15.843178,-2.838486
1571,-1.2197413,-15.843178,-2.838486
1572,-1.2197413,-15.843178,-2.838486
1573,-9.2590275,-22.437798,-1.6884354
1574,-9.2590275,-22.437798,-1.6884354
1575,-9.2590275,-22.437798,-1.6884354
1576,-9.2590275,-22.437798,-1.6884354
1577,-6.5641108,-17.828922,1.006481
1578,-6.5641108,-17.828922,1.006481
1579,-6.1713886,-13.526627,-1.9567307
1580,-6.1713886,-13.526627,-1.9567307
1581,-6.1713886,-13.526627,-1.9567307
1582,-6.1713886,-13.526627,-1.9567307
1583,-5.2082777,-10.910673,-4.342674
1584,0.24855445,-6.649056,-2.5558336
1585,0.24855445,-6.649056,-2.5558336
1586,5.034798,-5.580661,-1.4584254
1587,5.034798,-5.580661,-1.4584254
1588,5.034798,-5.580661,-1.4584254
1589,5.034798,-5.580661,-1.4584254
1590,2.6249263,-1.9444675,-3.0418758
1591,2.6249263,-1.9444675,-3.0418758
1592,2.6249263,-1.9444675,-3.0418758
1593,2.6249263,-1.9444675,-3.0418758
1594,-2.7649066,2.978466,-4.6875396
1595,-2.7649066,2.978466,-4.6875396
1596,-2.7649066,2.978466,-4.6875396
1597,-2.7649066,2.978466,-4.6875396
1598,-4.2188454,4.8083773,-3.0825539
1599,-1.986342,3.5581272,-2.8600214
1600,-1.986342,3.5581272,-2.8600214
1601,0.8787641,-1.5658033,-1.0944172
1602,0.8787641,-1.5658033,-1.0944172
1603,-0.8437691,-8.07458,7.483852
1604,-3.9098723,-17.012072,22.098913
1605,-3.9098723,-17.012072,22.098913
1606,-9.055338,-29.329725,25.68007
1607,-9.055338,-29.329725,25.68007
1608,-0.084346995,-9.557233,4.657031
1609,-0.084346995,-9.557233,4.657031
1610,-0.084346995,-9.557233,4.657031
1611,-0.084346995,-9.557233,4.657031
1612,-5.59412,-0.7851449,-1.0513464
1613,-9.225528,-11.037792,-0.9290134
1614,-9.225528,-11.037792,-0.9290134
1615,1.6621144,-19.668703,-2.3425734
1616,1.6621144,-19.668703,-2.3425734
1617,1.6621144,-19.668703,-2.3425734
1618,1.6621144,-19.668703,-2.3425734
1619,-0.5033901,-10.510773,-3.336492
1620,-0.5033901,-10.510773,-3.336492
1621,-2.9327033,-7.9689965,5.2776694
1622,2.6368906,-6.1677995,-12.32214
1623,2.6368906,-6.1677995,-12.32214
1624,2.6368906,-6.1677995,-12.32214
1625,2.6368906,-6.1677995,-12.32214
1626,-0.48185465,-8.510373,-3.9260237
1627,0.6343971,-10.688141,1.4231312
1628,0.6343971,-10.688141,1.4231312
1629,1.721935,-13.068999,3.2820554
1630,1.721935,-13.068999,3.2820554
1631,1.6908283,-9.099904,0.60628146
1632,1.6908283,-9.099904,0.60628146
1633,1.6908283,-9.099904,0.60628146
1634,1.6908283,-9.099904,0.60628146
1635,-2.7529426,-4.72074,0.5033901
1636,-2.7529426,-4.72074,0.5033901
1637,-2.7529426,-4.72074,0.5033901
1638,-2.7529426,-4.72074,0.5033901
1639,-2.2235305,-5.0512486,-3.1498518
1640,-2.2235305,-5.0512486,-3.1498518
1641,-2.1948166,-5.722136,-4.558327
1642,-2.1948166,-5.722136,-4.558327
1643,-2.2809582,-5.8298135,-4.618148
1644,-2.2235305,-6.0047884,-4.5272202
1645,-2.2235305,-6.0047884,-4.5272202
1646,-0.94666046,-14.995221,13.288241
1647,-0.94666046,-14.995221,13.288241
1648,-0.94666046,-14.995221,13.288241
1649,-0.94666046,-14.995221,13.288241
1650,2.8405795,-13.064214,-3.8898323
1651,2.8405795,-13.064214,-3.8898323
1652,2.8405795,-13.064214,-3.8898323
1653,3.1543384,-13.89572,5.648856
1654,3.1543384,-13.89572,5.648856
1655,5.9548383,-14.32912,-3.0323045
1656,5.9548383,-14.32912,-3.0323045
1657,5.9548383,-14.32912,-3.0323045
1658,5.9548383,-14.32912,-3.0323045
1659,-0.50099725,-14.825032,8.614461
1660,-0.50099725,-14.825032,8.614461
1661,4.800002,-12.4223385,4.642674
1662,4.800002,-12.4223385,4.642674
1663,4.800002,-12.4223385,4.642674
1664,4.800002,-12.4223385,4.642674
1665,6.0361943,-10.934601,-4.994419
1666,6.0361943,-10.934601,-4.994419
1667,0.04995017,-16.140186,-4.098307
1668,0.04995017,-16.140186,-4.098307
1669,0.04995017,-16.140186,-4.098307
1670,0.04995017,-16.140186,-4.098307
1671,-6.5162544,-15.629917,2.417349
1672,-6.5162544,-15.629917,2.417349
1673,-6.5162544,-15.629917,2.417349
1674,-6.5162544,-15.629917,2.417349
1675,-5.2106705,-15.316158,-0.17228323
1676,-5.2106705,-15.316158,-0.17228323
1677,-6.276673,-13.7374935,-1.2981063
1678,-6.276673,-13.7374935,-1.2981063
1679,-2.420041,-9.142975,-3.3966117
1680,-2.420041,-9.142975,-3.3966117
1681,0.3589234,-7.363014,-1.2167503
1682,0.3589234,-7.363014,-1.2167503
1683,1.6283158,-6.862316,-1.4703895
1684,3.6478581,-5.2716875,-1.9926231
1685,3.6478581,-5.2716875,-1.9926231
1686,3.6478581,-5.2716875,-1.9926231
1687,3.6478581,-5.2716875,-1.9926231
1688,1.2690933,-0.45673,-3.825226
1689,1.2690933,-0.45673,-3.825226
1690,1.2690933,-0.45673,-3.825226
1691,1.2690933,-0.45673,-3.825226
1692,-0.92512506,2.4272194,-3.8300118
1693,-0.92512506,2.4272194,-3.8300118
1694,-0.8964112,4.5448675,-3.4229329
1695,-0.8964112,4.5448675,-3.4229329
1696,-0.8964112,4.5448675,-3.4229329
1697,-0.8964112,4.5448675,-3.4229329
1698,1.4464613,-0.6891329,-1.6453646
1699,1.4464613,-0.6891329,-1.6453646
1700,1.4464613,-0.6891329,-1.6453646
1701,-4.942375,-23.213968,23.902504
1702,-4.942375,-23.213968,23.902504
1703,-9.110672,-31.332518,27.129225
1704,-0.33589247,-23.642881,13.187444
1705,-0.33589247,-23.642881,13.187444
1706,-3.3613176,-8.505588,4.5206404
1707,-3.3613176,-8.505588,4.5206404
1708,-12.303894,-14.089538,3.1671999
1709,-12.303894,-14.089538,3.1671999
1710,-12.303894,-14.089538,3.1671999
1711,-12.303894,-14.089538,3.1671999
1712,-12.303894,-14.089538,3.1671999
1713,4.7808595,-8.139186,-13.325929
1714,4.7808595,-8.139186,-13.325929
1715,4.7808595,-8.139186,-13.325929
1716,4.7808595,-8.139186,-13.325929
1717,0.061914288,-8.469695,-5.9524455
1718,0.061914288,-8.469695,-5.9524455
1719,1.1207383,-9.114262,-10.278668
1720,1.1207383,-9.114262,-10.278668
1721,1.0893325,-10.980364,-1.6932211
1722,1.0893325,-10.980364,-1.6932211
1723,1.0893325,-10.980364,-1.6932211
1724,1.0893325,-10.980364,-1.6932211
1725,2.71376,-10.225728,1.9405792
1726,2.71376,-10.225728,1.9405792
1727,2.71376,-10.225728,1.9405792
1728,2.71376,-10.225728,1.9405792
1729,0.13369897,-6.7235327,-1.1949158
1730,0.13369897,-6.7235327,-1.1949158
1731,-2.0318055,-5.0416775,1.2891332
1732,-2.0318055,-5.0416775,1.2891332
1733,-2.0318055,-5.0416775,1.2891332
1734,-2.0318055,-5.0416775,1.2891332
1735,-1.6606189,-5.4849477,-1.1805589
1736,-1.6606189,-5.4849477,-1.1805589
1737,-1.3875381,-5.5543394,-1.6716857
1738,-1.2963116,-8.749954,-2.3234308
1739,-1.2963116,-8.749954,-2.3234308
1740,-1.2963116,-8.749954,-2.3234308
1741,-1.2963116,-8.749954,-2.3234308
1742,-2.7936203,-11.586347,2.3982065
1743,-2.7936203,-11.586347,2.3982065
1744,-2.7936203,-11.586347,2.3982065
1745,-2.7936203,-11.586347,2.3982065
1746,0.84047896,-13.833207,5.4789658
1747,0.84047896,-13.833207,5.4789658
1748,1.1255239,-12.530016,0.26620153
1749,0.36131623,-13.093226,3.7636108
1750,0.36131623,-13.093226,3.7636108
1751,5.1065826,-12.640385,0.29491538
1752,5.1065826,-12.640385,0.29491538
1753,7.65793,-14.860924,-1.1973087
1754,7.65793,-14.860924,-1.1973087
1755,7.65793,-14.860924,-1.1973087
1756,7.65793,-14.860924,-1.1973087
1757,-1.5143577,-15.886249,6.3939214
1758,-1.5143577,-15.886249,6.3939214
1759,-1.8137596,-15.603597,6.2715883
1760,2.0907288,-14.247764,9.017053
1761,4.3091745,-12.970893,4.429713
1762,4.3091745,-12.970893,4.429713
1763,6.91765,-10.7431755,-3.0418758
1764,4.19402,-10.651949,-8.544471
1765,-1.5239289,-16.259829,-2.821736
1766,-1.5239289,-16.259829,-2.821736
1767,-7.498508,-22.198515,-4.3259244
1768,-7.498508,-22.198515,-4.3259244
1769,-7.7979097,-20.95993,0.22791636
1770,-7.7979097,-20.95993,0.22791636
1771,-6.5282183,-15.050256,-0.7639086
1772,-6.5282183,-15.050256,-0.7639086
1773,-6.5282183,-15.050256,-0.7639086
1774,-6.937989,-14.537594,-0.89072824
1775,-7.0528445,-12.824931,-2.536392
1776,-4.453641,-10.37169,-3.159423
1777,-1.6773686,-7.6480594,-3.0634112
1778,-1.2293127,-7.173682,-2.8600214
1779,-1.2293127,-7.173682,-2.8600214
1780,2.6368906,-5.022535,-2.0431714
1781,2.6368906,-5.022535,-2.0431714
1782,3.6000016,-4.126722,-1.9208384
1783,1.3384851,-0.74177504,-4.1318064
1784,1.3384851,-0.74177504,-4.1318064
1785,1.3384851,-0.74177504,-4.1318064
1786,1.3384851,-0.74177504,-4.1318064
1787,0.74207413,0.14446667,-4.3259244
1788,-0.9059825,1.320539,-3.676871
1789,-1.9839491,2.638087,-2.7209384
1790,-1.9839491,2.638087,-2.7209384
1791,-2.8223343,2.7556343,-0.5171488
1792,-2.8223343,2.7556343,-0.5171488
1793,-2.8223343,2.7556343,-0.5171488
1794,-2.8223343,2.7556343,-0.5171488
1795,-2.8223343,2.7556343,-0.5171488
1796,-0.79112697,-1.1132607,-0.39481574
1797,-2.6739793,-6.3903317,7.3399835
1798,-3.4621153,-20.047367,25.081268
1799,-5.807081,-28.944181,23.044975
1800,-7.2493553,-35.512478,26.101807
1801,1.5158532,-23.194826,10.499705
1802,1.5158532,-23.194826,10.499705
1803,1.5158532,-23.194826,10.499705
1804,1.5158532,-23.194826,10.499705
1805,-10.775478,-3.784249,-3.691228
1806,-10.775478,-3.784249,-3.691228
1807,-3.739982,-19.75963,7.89123
1808,-3.739982,-19.75963,7.89123
1809,-3.739982,-19.75963,7.89123
1810,-3.739982,-19.75963,7.89123
1811,6.2255263,-12.142079,-15.98256
1812,6.2255263,-12.142079,-15.98256
1813,-0.94426763,-5.192724,1.9381863
1814,-0.94426763,-5.192724,1.9381863
1815,-0.94426763,-5.192724,1.9381863
1816,-0.94426763,-5.192724,1.9381863
1817,0.23898315,-9.542876,-3.3340993
1818,0.23898315,-9.542876,-3.3340993
1819,0.23898315,-9.542876,-3.3340993
1820,0.23898315,-9.542876,-3.3340993
1821,0.23898315,-9.542876,-3.3340993
1822,2.5603201,-12.640385,5.624928
1823,2.5603201,-12.640385,5.624928
1824,2.387738,-12.776775,4.2068815
1825,0.65353966,-6.591628,-1.6310078
1826,0.65353966,-6.591628,-1.6310078
1827,0.65353966,-6.591628,-1.6310078
1828,0.65353966,-6.591628,-1.6310078
1829,-2.2211375,-5.2310095,0.86261255
1830,-2.2211375,-5.2310095,0.86261255
1831,-3.9625144,-5.494519,2.105983
1832,-3.9625144,-5.494519,2.105983
1833,-3.9625144,-5.494519,2.105983
1834,-3.9625144,-5.494519,2.105983
1835,0.4881358,-6.95115,-2.8791637
1836,0.4881358,-6.95115,-2.8791637
1837,0.4881358,-6.95115,-2.8791637
1838,0.22941187,-8.246863,-2.1915264
1839,-1.6271194,-11.890533,0.65922266
1840,-1.6271194,-11.890533,0.65922266
1841,-1.6271194,-11.890533,0.65922266
1842,-1.6271194,-11.890533,0.65922266
1843,-1.483251,-15.395122,8.988339
1844,0.30149564,-12.09183,-4.3785663
1845,0.30149564,-12.09183,-4.3785663
1846,0.30149564,-12.09183,-4.3785663
1847,0.30149564,-12.09183,-4.3785663
1848,-0.26650062,-13.272688,4.7075796
1849,1.1398809,-13.366307,8.075478
1850,5.4637113,-13.986647,2.568396
1851,8.860622,-15.63231,-1.4249259
1852,8.860622,-15.63231,-1.4249259
1853,6.0098734,-16.832312,2.2088745
1854,0.770788,-15.845571,7.1581287
1855,0.770788,-15.845571,7.1581287
1856,0.770788,-15.845571,7.1581287
1857,0.770788,-15.845571,7.1581287
1858,2.9650064,-16.04926,4.44407
1859,3.1232316,-11.792428,-3.947559
1860,3.1232316,-11.792428,-3.947559
1861,-3.275176,-13.023536,-4.136592
1862,-3.275176,-13.023536,-4.136592
1863,-7.1342006,-18.799212,-4.342674
1864,-7.1342006,-18.799212,-4.342674
1865,-7.55115,-19.457836,-0.43818563
1866,-7.55115,-19.457836,-0.43818563
1867,-7.55115,-19.457836,-0.43818563
1868,-7.55115,-19.457836,-0.43818563
1869,-4.4967117,-14.331512,0.599103
1870,-4.4967117,-14.331512,0.599103
1871,-5.081458,-13.591232,-1.1398809
1872,-5.3425746,-11.864213,-3.5712879
1873,1.9998015,-6.076573,-1.2669996
1874,1.9998015,-6.076573,-1.2669996
1875,1.9998015,-6.076573,-1.2669996
1876,1.9998015,-6.076573,-1.2669996
1877,3.7076788,-3.7220356,-1.9878374
1878,3.7076788,-3.7220356,-1.9878374
1879,3.7076788,-3.7220356,-1.9878374
1880,3.7076788,-3.7220356,-1.9878374
1881,3.7076788,-3.7220356,-1.9878374
1882,1.055833,-0.6053841,-4.9103713
1883,1.055833,-0.6053841,-4.9103713
1884,1.055833,-0.6053841,-4.9103713
1885,-0.42681974,0.71216387,-4.6301117
1886,-1.7922242,1.9914266,-3.691228
1887,-3.4573295,3.249154,-2.5411777
1888,-3.4573295,3.249154,-2.5411777
1889,-4.072883,-3.0272198,0.3595216
1890,-4.072883,-3.0272198,0.3595216
1891,-4.072883,-3.0272198,0.3595216
1892,-4.072883,-3.0272198,0.3595216
1893,-5.366503,-14.127823,16.962719
1894,-1.9624137,-31.205399,26.925835
1895,-1.9624137,-31.205399,26.925835
1896,-1.9624137,-31.205399,26.925835
1897,-1.9624137,-31.205399,26.925835
1898,-6.6239314,-3.7244284,-0.62961143
1899,-6.6239314,-3.7244284,-0.62961143
1900,-6.6239314,-3.7244284,-0.62961143
1901,-6.6239314,-3.7244284,-0.62961143
1902,-14.526826,-7.3773713,-0.60807604
1903,-14.526826,-7.3773713,-0.60807604
1904,-14.526826,-7.3773713,-0.60807604
1905,3.1543384,-19.220648,7.4623165
1906,3.1543384,-19.220648,7.4623165
1907,5.9285173,-10.18505,-9.993624
1908,5.9285173,-10.18505,-9.993624
1909,-1.8089739,-7.6313095,7.2083783
1910,-1.8089739,-7.6313095,7.2083783
1911,1.8726828,-7.109076,-13.086347
1912,1.8726828,-7.109076,-13.086347
1913,1.8726828,-7.109076,-13.086347
1914,-0.4244269,-7.0396843,-9.167203
1915,0.5479564,-9.811171,-2.1628125
1916,0.5479564,-9.811171,-2.1628125
1917,0.5479564,-9.811171,-2.1628125
1918,0.5479564,-9.811171,-2.1628125
1919,1.3480564,-13.2870455,4.8750772
1920,1.3480564,-13.2870455,4.8750772
1921,2.318346,-11.962318,4.278666
1922,2.318346,-11.962318,4.278666
1923,-0.86530447,-6.690033,-0.90029955
1924,-0.86530447,-6.690033,-0.90029955
1925,-3.2560334,-4.883751,-0.13369897
1926,-3.2560334,-4.883751,-0.13369897
1927,-3.3661032,-5.209474,-4.249354
1928,-3.3661032,-5.209474,-4.249354
1929,-3.3661032,-5.209474,-4.249354
1930,-3.3661032,-5.209474,-4.249354
1931,-1.5717853,-6.8407807,-0.83090764
1932,-1.5717853,-6.8407807,-0.83090764
1933,-1.5717853,-6.8407807,-0.83090764
1934,-1.5717853,-6.8407807,-0.83090764
1935,0.6870392,-15.488441,7.342376
1936,0.6870392,-15.488441,7.342376
1937,0.6870392,-15.488441,7.342376
1938,0.6870392,-15.488441,7.342376
1939,1.6501503,-11.574382,-2.4622145
1940,1.6501503,-11.574382,-2.4622145
1941,-2.105983,-14.118252,6.655038
1942,-2.105983,-14.118252,6.655038
1943,-2.105983,-14.118252,6.655038
1944,10.8918295,-13.924433,1.2628121
1945,10.8918295,-13.924433,1.2628121
1946,10.8918295,-13.924433,1.2628121
1947,10.8918295,-13.924433,1.2628121
1948,-3.0738797,-16.47309,6.1710896
1949,-3.0738797,-16.47309,6.1710896
1950,-3.0738797,-16.47309,6.1710896
1951,-3.0738797,-16.47309,6.1710896
1952,2.768795,-14.8944235,3.2341988
1953,2.768795,-14.8944235,3.2341988
1954,7.847262,-11.729916,-2.8337002
1955,2.2848465,-13.337295,-3.7773697
1956,2.2848465,-13.337295,-3.7773697
1957,2.2848465,-13.337295,-3.7773697
1958,-6.1977096,-20.229221,-4.5918264
1959,-9.654441,-22.241585,-3.7223346
1960,-9.654441,-22.241585,-3.7223346
1961,-5.2537413,-15.136398,0.7645068
1962,-5.2537413,-15.136398,0.7645068
1963,-5.2537413,-15.136398,0.7645068
1964,-5.2537413,-15.136398,0.7645068
1965,-5.270491,-14.978472,0.12981063
1966,-5.9820566,-13.509876,-1.7338991
1967,-4.2909293,-9.777672,-4.107878
1968,-4.2909293,-9.777672,-4.107878
1969,-4.2909293,-9.777672,-4.107878
1970,-4.2909293,-9.777672,-4.107878
1971,-0.04366901,-6.3161545,-2.4335005
1972,2.5316064,-5.358128,-0.84765744
1973,3.8850467,-4.8885365,-1.2092727
1974,3.8850467,-4.8885365,-1.2092727
1975,1.3193426,-1.4054842,-4.551149
1976,1.3193426,-1.4054842,-4.551149
1977,1.3193426,-1.4054842,-4.551149
1978,1.3193426,-1.4054842,-4.551149
1979,-0.54436713,0.8775677,-6.42443
1980,-0.54436713,0.8775677,-6.42443
1981,-2.772085,3.1914272,-3.5760734
1982,-2.772085,3.1914272,-3.5760734
1983,-3.0786655,3.0622149,-1.2263216
1984,-3.0786655,3.0622149,-1.2263216
1985,-2.992524,-7.0301127,9.87458
1986,-2.992524,-7.0301127,9.87458
1987,-2.992524,-7.0301127,9.87458
1988,-2.992524,-7.0301127,9.87458
1989,-5.948557,-31.617561,19.998014
1990,-5.948557,-31.617561,19.998014
1991,-5.948557,-31.617561,19.998014
1992,-5.948557,-31.617561,19.998014
1993,-7.8026958,-4.3734818,-0.2321038
1994,-7.8026958,-4.3734818,-0.2321038
1995,-7.8026958,-4.3734818,-0.2321038
1996,-7.8026958,-4.3734818,-0.2321038
1997,-7.8026958,-4.3734818,-0.2321038
1998,-5.110172,-13.969897,1.439881
1999,-5.110172,-13.969897,1.439881
2000,-5.110172,-13.969897,1.439881
2001,-5.110172,-13.969897,1.439881
2002,0.07148558,-14.84896,-7.4832535
2003,-3.9673,-10.144372,-0.85244304
2004,-3.9673,-10.144372,-0.85244304
2005,-4.5014977,-9.978968,0.29012975
2006,2.3829522,-8.0817585,-13.050455
2007,2.3829522,-8.0817585,-13.050455
2008,2.3829522,-8.0817585,-13.050455
2009,2.3829522,-8.0817585,-13.050455
2010,0.33499518,-8.33809,-5.676972
2011,2.3781667,-10.716854,0.057726845
2012,2.3781667,-10.716854,0.057726845
2013,2.3781667,-10.716854,0.057726845
2014,2.3781667,-10.716854,0.057726845
2015,2.8812575,-11.835499,2.759822
2016,2.8812575,-11.835499,2.759822
2017,2.8812575,-11.835499,2.759822
2018,2.8812575,-11.835499,2.759822
2019,-2.6955147,-6.3017974,0.15373886
2020,-2.6955147,-6.3017974,0.15373886
2021,-2.6955147,-6.3017974,0.15373886
2022,-3.7109687,-4.9435716,1.7874385
2023,-3.7109687,-4.9435716,1.7874385
2024,-3.7109687,-4.9435716,1.7874385
2025,-3.7109687,-4.9435716,1.7874385
2026,-1.8475581,-5.7484574,-2.7759733
2027,-1.8475581,-5.7484574,-2.7759733
2028,-1.8475581,-5.7484574,-2.7759733
2029,-1.8475581,-5.7484574,-2.7759733
2030,-1.3971093,-9.70828,0.76689965
2031,-1.3971093,-9.70828,0.76689965
2032,-1.3971093,-9.70828,0.76689965
2033,3.7483566,-11.500205,-4.138985
2034,3.7483566,-11.500205,-4.138985
2035,3.7483566,-11.500205,-4.138985
2036,3.7483566,-11.500205,-4.138985
2037,-0.7716853,-14.008182,6.355636
2038,-0.7716853,-14.008182,6.355636
2039,-0.7716853,-14.008182,6.355636
2040,-0.7716853,-14.008182,6.355636
2041,7.068697,-13.658531,-2.2034905
2042,3.8970108,-16.48266,5.816653
2043,3.8970108,-16.48266,5.816653
2044,3.8970108,-16.48266,5.816653
2045,-1.6534405,-16.966608,6.5904317
2046,-4.343571,-17.81935,6.940083
2047,-4.343571,-17.81935,6.940083
2048,6.4962144,-11.737094,-2.9126635
2049,6.4962144,-11.737094,-2.9126635
2050,6.4962144,-11.737094,-2.9126635
2051,6.4962144,-11.737094,-2.9126635
2052,-4.7267222,-18.080467,-2.673082
2053,-4.7267222,-18.080467,-2.673082
2054,-4.7267222,-18.080467,-2.673082
2055,-4.7267222,-18.080467,-2.673082
2056,-6.3532434,-17.337795,2.117947
2057,-6.3532434,-17.337795,2.117947
2058,-6.3532434,-17.337795,2.117947
2059,-4.822734,-15.306587,1.2723835
2060,-4.822734,-15.306587,1.2723835
2061,-4.8418765,-14.654842,0.1585245
2062,-4.8418765,-14.654842,0.1585245
2063,-4.8418765,-14.654842,0.1585245
2064,-2.2402802,-9.188439,-4.4434714
2065,0.0065802624,-7.255337,-2.5582266
2066,2.8549366,-6.1917276,-1.9591235
2067,2.8549366,-6.1917276,-1.9591235
2068,2.8549366,-6.1917276,-1.9591235
2069,4.9103713,-4.900501,-1.4679967
2070,4.9103713,-4.900501,-1.4679967
2071,4.9103713,-4.900501,-1.4679967
2072,4.019045,-3.6140594,-1.817947
2073,-1.8161523,1.2678969,-5.238786
2074,-1.8161523,1.2678969,-5.238786
2075,-1.8161523,1.2678969,-5.238786
2076,-1.8161523,1.2678969,-5.238786
2077,-4.525725,4.468297,-4.8649077
2078,-4.525725,4.468297,-4.8649077
2079,-4.7841496,5.0216374,-3.8491542
2080,-0.93708915,4.4467616,-0.77826554
2081,-0.93708915,4.4467616,-0.77826554
2082,-1.9384855,-8.910572,10.600503
2083,-1.9384855,-8.910572,10.600503
2084,-1.9384855,-8.910572,10.600503
2085,-1.9384855,-8.910572,10.600503
2086,-5.7137613,-33.36851,25.165016
2087,-5.7137613,-33.36851,25.165016
2088,-5.7137613,-33.36851,25.165016
2089,-5.7137613,-33.36851,25.165016
2090,-3.8261235,-3.4199417,1.1668001
2091,-3.8261235,-3.4199417,1.1668001
2092,-3.8261235,-3.4199417,1.1668001
2093,-3.8261235,-3.4199417,1.1668001
2094,-5.1293144,-17.306688,3.6726837
2095,-5.1293144,-17.306688,3.6726837
2096,-5.1293144,-17.306688,3.6726837
2097,-3.99392,-17.586946,3.2341988
2098,4.272983,-13.871492,-10.817652
2099,5.0994043,-11.516954,-13.407285
2100,-3.2823544,-6.7259254,0.14416756
2101,-3.2823544,-6.7259254,0.14416756
2102,-4.025027,-6.2587266,1.2269198
2103,1.9471594,-5.8731833,-13.82902
2104,1.9471594,-5.8731833,-13.82902
2105,-0.56111693,-10.27837,-2.5387847
2106,-0.56111693,-10.27837,-2.5387847
2107,-0.56111693,-10.27837,-2.5387847
2108,0.84047896,-12.120544,2.4891338
2109,0.84047896,-12.120544,2.4891338
2110,4.043272,-13.917254,0.8913264
2111,4.043272,-13.917254,0.8913264
2112,4.043272,-13.917254,0.8913264
2113,4.289733,-12.489338,0.97776717
2114,4.289733,-12.489338,0.97776717
2115,4.289733,-12.489338,0.97776717
2116,4.289733,-12.489338,0.97776717
2117,4.289733,-12.489338,0.97776717
2118,4.289733,-12.489338,0.97776717
2119,4.289733,-12.489338,0.97776717
2120,4.289733,-12.489338,0.97776717
2121,-4.0848475,-8.249256,-2.1771696
2122,-4.0848475,-8.249256,-2.1771696
2123,-4.0848475,-8.249256,-2.1771696
2124,-4.0848475,-8.249256,-2.1771696
2125,-4.415356,-10.175478,-1.017847
2126,-4.959125,-13.919647,1.3944174
2127,-5.0045886,-14.98565,3.112165
2128,4.723432,-9.725029,1.1596217
2129,4.723432,-9.725029,1.1596217
2130,4.723432,-9.725029,1.1596217
2131,4.723432,-9.725029,1.1596217
2132,7.018448,-12.192328,-4.1318064
2133,1.1350952,-13.529019,7.443174
2134,1.1350952,-13.529019,7.443174
2135,1.1350952,-13.529019,7.443174
2136,1.1350952,-13.529019,7.443174
2137,7.5622168,-11.734701,-2.6635108
2138,8.369495,-12.364911,-3.3607194
2139,8.369495,-12.364911,-3.3607194
2140,1.3002,-15.689738,6.1591253
2141,-0.9514461,-15.943676,4.5613184
2142,-0.9514461,-15.943676,4.5613184
2143,-0.9514461,-15.943676,4.5613184
2144,2.5866413,-13.267902,-3.5928233
2145,2.5866413,-13.267902,-3.5928233
2146,2.5866413,-13.267902,-3.5928233
2147,1.8750757,-13.313366,-4.206283
2148,-1.4258232,-15.495919,-4.0815573
2149,-4.276572,-19.35973,-2.4933212
2150,-4.276572,-19.35973,-2.4933212
2151,-8.674581,-21.748066,-1.6884354
2152,-8.674581,-21.748066,-1.6884354
2153,-6.27428,-17.361723,1.4231312
2154,-6.27428,-17.361723,1.4231312
2155,-5.977271,-13.349258,-2.23699
2156,-5.977271,-13.349258,-2.23699
2157,-5.977271,-13.349258,-2.23699
2158,-5.977271,-13.349258,-2.23699
2159,-4.5879383,-11.593525,-4.275675
2160,-1.076172,-8.723633,-4.2661037
2161,3.4872398,-5.183153,-1.7988044
2162,3.4872398,-5.183153,-1.7988044
2163,3.528217,-5.1161537,-1.7315062
2164,3.528217,-5.1161537,-1.7315062
2165,4.0480576,-4.232006,-1.57358
2166,4.0480576,-4.232006,-1.57358
2167,3.0849466,-2.05693,-2.9198418
2168,3.0849466,-2.05693,-2.9198418
2169,3.0849466,-2.05693,-2.9198418
2170,3.0849466,-2.05693,-2.9198418
2171,-4.2092743,4.686343,-4.0217366
2172,-4.2092743,4.686343,-4.0217366
2173,-4.2092743,4.686343,-4.0217366
2174,-4.2092743,4.686343,-4.0217366
2175,-4.2068815,4.334299,-3.4899318
2176,0.23659034,3.6610186,-2.8839495
2177,0.23659034,3.6610186,-2.8839495
2178,-3.1193435,-15.174683,20.901007
2179,-3.1193435,-15.174683,20.901007
2180,-3.1193435,-15.174683,20.901007
2181,-3.1193435,-15.174683,20.901007
2182,-0.26889345,-20.995823,15.451353
2183,-0.26889345,-20.995823,15.451353
2184,-0.26889345,-20.995823,15.451353
2185,-0.26889345,-20.995823,15.451353
2186,0.48095736,-8.898608,7.5197444
2187,0.8859426,-0.83778703,-0.011665011
2188,0.8859426,-0.83778703,-0.011665011
2189,0.8859426,-0.83778703,-0.011665011
2190,0.8859426,-0.83778703,-0.011665011
2191,-6.7438717,-23.702703,-2.5630121
2192,-6.7438717,-23.702703,-2.5630121
2193,-6.7438717,-23.702703,-2.5630121
2194,-6.7438717,-23.702703,-2.5630121
2195,-6.7438717,-23.702703,-2.5630121
2196,-3.0260234,-6.2515483,0.5608178
2197,0.21505493,-7.0803623,-10.000802
2198,0.21505493,-7.0803623,-10.000802
2199,0.21505493,-7.0803623,-10.000802
2200,-0.07716853,-7.166504,-14.607584
2201,-1.3082758,-7.731808,-7.6462646
2202,-1.4186447,-8.999106,-0.84047896
2203,-1.4186447,-8.999106,-0.84047896
2204,0.9601201,-12.429517,5.8334026
2205,0.9601201,-12.429517,5.8334026
2206,5.2815576,-13.550554,1.0830513
2207,5.2815576,-13.550554,1.0830513
2208,5.2815576,-13.550554,1.0830513
2209,5.2815576,-13.550554,1.0830513
2210,0.83090764,-5.2645087,-0.5913263
2211,0.83090764,-5.2645087,-0.5913263
2212,0.83090764,-5.2645087,-0.5913263
2213,-2.1804597,-4.5675993,-2.9102705
2214,-2.1804597,-4.5675993,-2.9102705
2215,-2.1804597,-4.5675993,-2.9102705
2216,-2.1804597,-4.5675993,-2.9102705
2217,-3.8763726,-6.2324057,-2.4598217
2218,-3.8763726,-6.2324057,-2.4598217
2219,-3.8763726,-6.2324057,-2.4598217
2220,-5.0165524,-13.929219,4.132405
2221,-5.0165524,-13.929219,4.132405
2222,-5.0165524,-13.929219,4.132405
2223,0.41635114,-14.32912,12.4833555
2224,0.41635114,-14.32912,12.4833555
2225,0.41635114,-14.32912,12.4833555
2226,0.41635114,-14.32912,12.4833555
2227,3.5497525,-12.58535,9.017053
2228,3.5497525,-12.58535,9.017053
2229,3.5497525,-12.58535,9.017053
2230,3.5497525,-12.58535,9.017053
2231,7.7273216,-13.5481615,-0.5243273
2232,7.7273216,-13.5481615,-0.5243273
2233,6.9415784,-14.769997,-0.67028946
2234,6.9415784,-14.769997,-0.67028946
2235,1.4464613,-16.324734,6.7005014
2236,0.18155542,-16.856539,6.6717877
2237,-0.060418773,-16.868502,6.142376
2238,0.4331009,-14.132608,5.4813585
2239,3.336492,-13.967504,2.9946175
2240,1.2284154,-13.263117,-2.9150562
2241,1.2284154,-13.263117,-2.9150562
2242,1.2284154,-13.263117,-2.9150562
2243,-6.652645,-21.587448,-7.574181
2244,-6.652645,-21.587448,-7.574181
2245,-6.652645,-21.587448,-7.574181
2246,-6.652645,-21.587448,-7.574181
2247,-6.652645,-21.587448,-7.574181
2248,-5.1867423,-17.704494,2.7813573
2249,-5.9700923,-16.648064,3.0978081
2250,-5.9700923,-16.648064,3.0978081
2251,-6.849156,-15.87907,-0.7280163
2252,-6.849156,-15.87907,-0.7280163
2253,-6.849156,-15.87907,-0.7280163
2254,0.0017946169,-6.387939,-2.1149561
2255,0.0017946169,-6.387939,-2.1149561
2256,0.0017946169,-6.387939,-2.1149561
2257,0.0017946169,-6.387939,-2.1149561
2258,2.1771696,-5.029713,-1.7458632
2259,4.1054854,-3.1540394,-1.8705891
2260,4.1054854,-3.1540394,-1.8705891
2261,4.1054854,-3.1540394,-1.8705891
2262,4.1054854,-3.1540394,-1.8705891
2263,-0.7070791,0.9182457,-4.778766
2264,-0.7070791,0.9182457,-4.778766
2265,-0.7070791,0.9182457,-4.778766
2266,-0.7070791,0.9182457,-4.778766
2267,-4.0298123,3.6370904,-3.1378877
2268,-4.0298123,3.6370904,-3.1378877
2269,-4.0298123,3.6370904,-3.1378877
2270,-4.0298123,3.6370904,-3.1378877
2271,-1.5167505,1.8451654,-4.0217366
2272,-1.5167505,1.8451654,-4.0217366
2273,-1.0474582,-6.007181,7.1078796
2274,-1.0474582,-6.007181,7.1078796
2275,-3.3684962,-20.037497,25.787748
2276,-3.3684962,-20.037497,25.787748
2277,-3.3684962,-20.037497,25.787748
2278,-9.594321,-37.591843,28.38456
2279,-9.594321,-37.591843,28.38456
2280,0.07866404,-21.02693,9.972687
2281,-4.4225345,-4.2801614,2.3670998
2282,-4.4225345,-4.2801614,2.3670998
2283,-11.745469,-7.264909,-2.7640092
2284,-11.745469,-7.264909,-2.7640092
2285,-11.745469,-7.264909,-2.7640092
2286,-8.149954,-17.900705,6.5832534
2287,-1.0375878,-20.140688,4.959125
2288,0.4235296,-19.769201,5.12423
2289,4.397709,-7.988139,-13.261322
2290,4.397709,-7.988139,-13.261322
2291,-0.98973125,-5.851349,-4.199105
2292,-3.5937204,-5.185546,1.5574285
2293,0.9984053,-6.392725,-10.199706
2294,0.9984053,-6.392725,-10.199706
2295,-0.45074797,-8.053044,-11.10509
2296,-0.45074797,-8.053044,-11.10509
2297,-2.6090739,-8.709276,-4.33071
2298,1.0319048,-11.847463,2.542075
2299,1.0319048,-11.847463,2.542075
2300,5.0156555,-13.440485,2.5588248
2301,5.0156555,-13.440485,2.5588248
2302,5.0156555,-13.440485,2.5588248
2303,5.0156555,-13.440485,2.5588248
2304,4.8673005,-11.562418,1.047159
2305,2.864508,-8.476873,-0.6969096
2306,-0.34307095,-6.8671017,-1.0130613
2307,-4.386642,-4.8358946,3.248556
2308,-4.386642,-4.8358946,3.248556
2309,-4.386642,-4.8358946,3.248556
2310,-4.386642,-4.8358946,3.248556
2311,-4.106383,-4.800002,0.07447661
2312,-2.9877381,-4.867001,-3.734299
2313,-2.9877381,-4.867001,-3.734299
2314,-1.4928222,-6.1917276,-4.045665
2315,-1.5191432,-8.306983,-2.0021944
2316,-1.7252251,-9.58834,-0.9987044
2317,-1.8424734,-15.011971,11.877074
2318,-1.8424734,-15.011971,11.877074
2319,-1.8424734,-15.011971,11.877074
2320,0.7396813,-10.893924,-3.4660037
2321,0.7396813,-10.893924,-3.4660037
2322,0.7396813,-10.893924,-3.4660037
2323,1.2738789,-13.936398,2.542075
2324,1.2738789,-13.936398,2.542075
2325,1.2738789,-13.936398,2.542075
2326,1.2738789,-13.936398,2.542075
2327,10.36481,-13.073785,-0.3182454
2328,10.36481,-13.073785,-0.3182454
2329,11.045269,-12.927822,-3.1043882
2330,4.3259244,-15.522241,3.5001013
2331,-2.4296124,-17.493628,6.3604217
2332,-2.4296124,-17.493628,6.3604217
2333,6.0098734,-12.728919,-1.314856
2334,6.0098734,-12.728919,-1.314856
2335,6.0098734,-12.728919,-1.314856
2336,6.0098734,-12.728919,-1.314856
2337,-6.0753765,-17.879171,-3.501896
2338,-6.0753765,-17.879171,-3.501896
2339,-6.0753765,-17.879171,-3.501896
2340,-6.0753765,-17.879171,-3.501896
2341,-8.320144,-22.124039,-4.848158
2342,-8.320144,-22.124039,-4.848158
2343,-8.320144,-22.124039,-4.848158
2344,-5.9820566,-17.440985,1.4712868
2345,-5.313562,-15.203397,2.5803602
2346,-5.313562,-15.203397,2.5803602
2347,-5.854938,-12.570992,-3.204887
2348,-5.854938,-12.570992,-3.204887
2349,-5.854938,-12.570992,-3.204887
2350,-5.854938,-12.570992,-3.204887
2351,1.8511474,-6.352047,-2.9557343
2352,1.8511474,-6.352047,-2.9557343
2353,1.8511474,-6.352047,-2.9557343
2354,1.8511474,-6.352047,-2.9557343
2355,3.609573,-4.603492,-0.8500503
2356,3.609573,-4.603492,-0.8500503
2357,3.609573,-4.603492,-0.8500503
2358,-0.7286145,-0.81864446,-4.6875396
2359,-0.7286145,-0.81864446,-4.6875396
2360,-0.7286145,-0.81864446,-4.6875396
2361,-0.7286145,-0.81864446,-4.6875396
2362,-2.3961127,1.1147562,-4.6899323
2363,-3.1073792,3.5653057,-3.9858444
2364,-3.1073792,3.5653057,-3.9858444
2365,-3.1504502,3.522235,-4.153342
2366,-2.417648,2.4586253,-1.6788642
2367,-2.417648,2.4586253,-1.6788642
2368,-0.45074797,-7.734201,13.058231
2369,-0.45074797,-7.734201,13.058231
2370,-0.45074797,-7.734201,13.058231
2371,-3.9481573,-20.684456,22.355246
2372,-3.9481573,-20.684456,22.355246
2373,-3.9481573,-20.684456,22.355246
2374,-6.3747787,-33.34937,25.368706
2375,-2.5755744,-8.771489,4.7769713
2376,-2.5755744,-8.771489,4.7769713
2377,-2.5755744,-8.771489,4.7769713
2378,-2.5755744,-8.771489,4.7769713
2379,-10.684551,-1.2855439,0.20877378
2380,-10.684551,-1.2855439,0.20877378
2381,-10.684551,-1.2855439,0.20877378
2382,-10.684551,-1.2855439,0.20877378
2383,-4.918447,-24.29672,7.9127655
2384,-4.918447,-24.29672,7.9127655
2385,-4.918447,-24.29672,7.9127655
2386,-4.918447,-24.29672,7.9127655
2387,-0.39810586,-5.2022953,4.853542
2388,-0.39810586,-5.2022953,4.853542
2389,-0.39810586,-5.2022953,4.853542
2390,2.1867409,-4.9603214,-12.247962
2391,2.1867409,-4.9603214,-12.247962
2392,-1.0737791,-8.182257,-3.4013975
2393,-1.0737791,-8.182257,-3.4013975
2394,-1.0737791,-8.182257,-3.4013975
2395,-1.2699906,-8.476873,-3.0801609
2396,-0.9705887,-10.58495,0.31166515
2397,-0.8964112,-11.792428,3.1217363
2398,0.47138608,-12.889538,4.961518
2399,3.7507496,-11.1885395,2.1993032
2400,3.7507496,-11.1885395,2.1993032
2401,-1.0208379,-5.401199,1.317847
2402,-1.0208379,-5.401199,1.317847
2403,-1.0208379,-5.401199,1.317847
2404,-1.0208379,-5.401199,1.317847
2405,-2.134996,-5.302794,-0.21535404
2406,-2.134996,-5.302794,-0.21535404
2407,-2.134996,-5.302794,-0.21535404
2408,-2.134996,-5.302794,-0.21535404
2409,-1.9265213,-7.5403824,-2.2633111
2410,-1.9265213,-7.5403824,-2.2633111
2411,-1.9073788,-7.7294154,-1.9495523
2412,-2.0150557,-10.685748,1.5502499
2413,-2.0150557,-10.685748,1.5502499
2414,-1.605584,-13.224832,5.1146584
2415,-0.24975087,-13.133904,7.3232336
2416,-0.24975087,-13.133904,7.3232336
2417,3.8300118,-12.271292,-1.8323039
2418,3.8300118,-12.271292,-1.8323039
2419,3.8300118,-12.271292,-1.8323039
2420,3.8300118,-12.271292,-1.8323039
2421,2.1577277,-13.054642,2.2471595
2422,5.6554365,-13.224832,-0.72323066
2423,5.6554365,-13.224832,-0.72323066
2424,5.6554365,-13.224832,-0.72323066
2425,5.6554365,-13.224832,-0.72323066
2426,5.6554365,-13.224832,-0.72323066
2427,1.0797613,-17.65903,5.4379888
2428,1.0797613,-17.65903,5.4379888
2429,1.0797613,-17.65903,5.4379888
2430,1.5373886,-16.588243,5.974579
2431,6.6613193,-12.575779,-1.7123637
2432,6.6613193,-12.575779,-1.7123637
2433,6.6613193,-12.575779,-1.7123637
2434,1.0677971,-12.71217,-4.009773
2435,-4.8825545,-18.03261,-4.2948174
2436,-4.8825545,-18.03261,-4.2948174
2437,-6.9858456,-20.979073,-5.13081
2438,-7.3977103,-19.55624,2.8630123
2439,-7.3977103,-19.55624,2.8630123
2440,-7.3977103,-19.55624,2.8630123
2441,-5.38086,-16.121044,-0.21535404
2442,-5.38086,-16.121044,-0.21535404
2443,-5.38086,-16.121044,-0.21535404
2444,-5.38086,-16.121044,-0.21535404
2445,-5.608477,-10.932208,-4.2661037
2446,-5.608477,-10.932208,-4.2661037
2447,-1.931307,-6.517451,-1.9950159
2448,-1.931307,-6.517451,-1.9950159
2449,-1.931307,-6.517451,-1.9950159
2450,3.5401812,-4.711169,-3.379862
2451,3.5401812,-4.711169,-3.379862
2452,3.5401812,-4.711169,-3.379862
2453,4.34746,-2.6461627,-1.2020943
2454,4.34746,-2.6461627,-1.2020943
2455,2.495714,-0.6628119,-3.4229329
2456,2.495714,-0.6628119,-3.4229329
2457,2.495714,-0.6628119,-3.4229329
2458,-0.8222337,1.6369898,-5.027919
2459,-3.4860435,4.156931,-3.4851463
2460,-3.4860435,4.156931,-3.4851463
2461,-3.2775688,4.8179483,-3.85394
2462,-3.2775688,4.8179483,-3.85394
2463,-1.7850457,4.4874396,-3.4325042
2464,1.43689,0.87996054,-3.2742786
2465,-4.1015973,-16.008282,24.005693
2466,-4.1015973,-16.008282,24.005693
2467,-4.1015973,-16.008282,24.005693
2468,-10.464112,-36.130726,22.628326
2469,-10.464112,-36.130726,22.628326
2470,-10.464112,-36.130726,22.628326
2471,-10.464112,-36.130726,22.628326
2472,0.622433,-17.17269,7.5029945
2473,-1.8547367,-2.483451,6.324529
2474,-1.8547367,-2.483451,6.324529
2475,-1.8547367,-2.483451,6.324529
2476,-1.8547367,-2.483451,6.324529
2477,-11.747862,-13.747066,-1.6429719
2478,-11.747862,-13.747066,-1.6429719
2479,-11.747862,-13.747066,-1.6429719
2480,-11.747862,-13.747066,-1.6429719
2481,4.7425747,-17.900705,-12.451352
2482,4.7425747,-17.900705,-12.451352
2483,2.2848465,-11.100005,-11.033305
2484,-0.86291164,-7.3749785,5.2848477
2485,1.4943178,-6.5868425,-4.0552363
2486,3.3891342,-6.2252274,-12.923336
2487,3.6191442,-6.3687963,-14.178671
2488,-0.24735804,-7.923533,-6.62094
2489,-0.24735804,-7.923533,-6.62094
2490,-1.2317054,-9.418449,-0.785444
2491,1.3986049,-12.839288,3.1767712
2492,1.3986049,-12.839288,3.1767712
2493,1.3986049,-12.839288,3.1767712
2494,1.3986049,-12.839288,3.1767712
2495,3.760321,-9.969397,-0.2847459
2496,3.760321,-9.969397,-0.2847459
2497,-0.6113662,-6.646663,-0.30867413
2498,-0.6113662,-6.646663,-0.30867413
2499,-2.4296124,-4.8933225,2.6688945
2500,-2.4296124,-4.8933225,2.6688945
2501,-2.48704,-4.6489553,0.98016
2502,-2.48704,-4.6489553,0.98016
2503,-2.48704,-4.6489553,0.98016
2504,-2.48704,-4.6489553,0.98016
2505,-3.1073792,-4.749454,-4.340281
2506,-2.5301108,-7.0612197,-3.188137
2507,-2.5301108,-7.0612197,-3.188137
2508,-2.6377878,-8.04108,-2.7735806
2509,-3.2584262,-12.039188,1.1644074
2510,-1.9480567,-15.15554,7.4072814
2511,1.1159526,-13.7686,11.407782
2512,2.2561326,-12.939787,10.567004
2513,3.6861434,-12.0125675,-2.864807
2514,3.6861434,-12.0125675,-2.864807
2515,-0.7070791,-13.270295,2.879762
2516,-0.7070791,-13.270295,2.879762
2517,7.2433734,-13.8499565,1.7347964
2518,7.2433734,-13.8499565,1.7347964
2519,7.2433734,-13.8499565,1.7347964
2520,9.032906,-14.369798,-1.5496517
2521,5.727221,-15.874285,1.7611175
2522,5.727221,-15.874285,1.7611175
2523,0.2844468,-17.242083,6.084948
2524,0.2844468,-17.242083,6.084948
2525,-0.081954174,-15.340087,6.408278
2526,-0.081954174,-15.340087,6.408278
2527,4.3259244,-13.790136,-1.3172488
2528,4.3259244,-13.790136,-1.3172488
2529,-0.3167499,-12.305091,-4.9896336
2530,-0.3167499,-12.305091,-4.9896336
2531,-5.296812,-16.61935,-4.1294136
2532,-5.296812,-16.61935,-4.1294136
2533,-5.2944193,-17.028822,-4.9848475
2534,-7.1270223,-19.786251,-2.3784657
2535,-5.3569317,-16.47309,0.00029910283
2536,-5.3569317,-16.47309,0.00029910283
2537,-5.3569317,-16.47309,0.00029910283
2538,-5.3569317,-16.47309,0.00029910283
2539,-5.3569317,-16.47309,0.00029910283
2540,-4.712365,-10.47488,-5.2675
2541,-4.712365,-10.47488,-5.2675
2542,-4.712365,-10.47488,-5.2675
2543,-2.9973094,-9.037392,-5.1403813
2544,3.460919,-5.42752,-1.0274183
2545,3.460919,-5.42752,-1.0274183
2546,3.460919,-5.42752,-1.0274183
2547,5.046762,-4.641777,-0.77587277
2548,5.046762,-4.641777,-0.77587277
2549,4.9462633,-3.3792639,-2.3784657
2550,4.9462633,-3.3792639,-2.3784657
2551,-0.45792642,1.1889337,-5.643472
2552,-0.45792642,1.1889337,-5.643472
2553,-0.45792642,1.1889337,-5.643472
2554,-0.45792642,1.1889337,-5.643472
2555,-4.2308097,4.3989053,-5.636294
2556,-4.2308097,4.3989053,-5.636294
2557,-4.0776687,4.1760736,-4.5248275
2558,-1.224527,2.3817558,-3.2455647
2559,-1.224527,2.3817558,-3.2455647
2560,-4.664509,-13.186546,19.54996
2561,-4.664509,-13.186546,19.54996
2562,-4.664509,-13.186546,19.54996
2563,-4.664509,-13.186546,19.54996
2564,-0.6664011,-12.326626,6.2814584
2565,-0.6664011,-12.326626,6.2814584
2566,-0.6664011,-12.326626,6.2814584
2567,-0.6664011,-12.326626,6.2814584
2568,-0.6664011,-12.326626,6.2814584
2569,-3.9601214,-2.9865417,1.4039887
2570,-3.9601214,-2.9865417,1.4039887
2571,-3.9601214,-2.9865417,1.4039887
2572,-14.38535,-17.297117,0.09361918
2573,-14.38535,-17.297117,0.09361918
2574,0.5697909,-23.065615,-2.9270203
2575,2.0739791,-21.620947,-2.6012974
2576,2.0739791,-21.620947,-2.6012974
2577,6.9009004,-12.439089,-9.13131
2578,0.8210373,-6.174978,-16.514364
2579,0.8210373,-6.174978,-16.514364
2580,0.8210373,-6.174978,-16.514364
2581,0.8210373,-6.174978,-16.514364
2582,-0.6855437,-7.255337,-9.75165
2583,-2.9781668,-9.506984,-0.89072824
2584,-2.9781668,-9.506984,-0.89072824
2585,1.2355938,-12.50848,2.7095726
2586,1.2355938,-12.50848,2.7095726
2587,1.3241283,-13.622639,3.028117
2588,1.3241283,-13.622639,3.028117
2589,6.786045,-15.0837555,-0.49800622
2590,6.786045,-15.0837555,-0.49800622
2591,3.5521452,-8.802596,-1.0010972
2592,3.5521452,-8.802596,-1.0010972
2593,-0.14177474,-4.8622155,0.7070791
2594,-0.14177474,-4.8622155,0.7070791
2595,-2.7792635,-4.119543,-2.4885356
2596,-2.7792635,-4.119543,-2.4885356
2597,-2.7792635,-4.119543,-2.4885356
2598,-2.7792635,-4.119543,-2.4885356
2599,-4.5616174,-5.8250275,-0.69930243
2600,-4.5616174,-5.8250275,-0.69930243
2601,-5.8597236,-9.861421,3.3565319
2602,-5.8597236,-9.861421,3.3565319
2603,-7.0002027,-14.949458,4.098905
2604,-7.0002027,-14.949458,4.098905
2605,0.8282157,-11.392229,9.769297
2606,0.8282157,-11.392229,9.769297
2607,6.489036,-12.52523,-3.3173494
2608,6.489036,-12.52523,-3.3173494
2609,5.030012,-12.5348015,5.519644
2610,5.030012,-12.5348015,5.519644
2611,5.030012,-12.5348015,5.519644
2612,5.030012,-12.5348015,5.519644
2613,7.0280194,-13.009178,3.8641095
2614,7.289136,-13.30858,0.08165507
2615,3.499204,-14.98565,3.3203406
2616,3.499204,-14.98565,3.3203406
2617,0.31345975,-15.51267,7.5173516
2618,3.2742786,-13.775779,2.556432
2619,3.2742786,-13.775779,2.556432
2620,3.2742786,-13.775779,2.556432
2621,3.2742786,-13.775779,2.556432
2622,3.6526437,-13.169797,-5.3009996
2623,3.6526437,-13.169797,-5.3009996
2624,3.6526437,-13.169797,-5.3009996
2625,-7.234998,-23.712275,-6.0460644
2626,-7.234998,-23.712275,-6.0460644
2627,-7.234998,-23.712275,-6.0460644
2628,-7.66122,-23.970999,-5.4373903
2629,-8.118847,-23.841785,-3.257529
2630,-6.30778,-19.793428,2.417349
2631,-4.9471607,-17.551056,1.1309078
2632,-4.9471607,-17.551056,1.1309078
2633,-4.9471607,-17.551056,1.1309078
2634,-4.9471607,-17.551056,1.1309078
2635,-3.8931224,-10.194621,-3.6457644
2636,-3.8931224,-10.194621,-3.6457644
2637,-0.5563313,-6.7833533,-1.8251255
2638,-0.5563313,-6.7833533,-1.8251255
2639,3.161517,-3.647559,-1.7291135
2640,3.161517,-3.647559,-1.7291135
2641,3.161517,-3.647559,-1.7291135
2642,3.161517,-3.647559,-1.7291135
2643,2.3279173,-2.0425732,-2.5701907
2644,2.3279173,-2.0425732,-2.5701907
2645,2.3279173,-2.0425732,-2.5701907
2646,2.3279173,-2.0425732,-2.5701907
2647,1.1805589,0.12771691,-5.391927
2648,-2.7242286,3.435794,-2.9341989
2649,-2.7242286,3.435794,-2.9341989
2650,-2.7242286,3.435794,-2.9341989
2651,-2.7242286,3.435794,-2.9341989
2652,-2.678765,3.4166517,-1.7171494
2653,0.8066803,1.7973089,-4.6755753
2654,0.8066803,1.7973089,-4.6755753
2655,-0.44835514,-4.8382874,1.5239289
2656,-0.44835514,-4.8382874,1.5239289
2657,-0.44835514,-4.8382874,1.5239289
2658,-0.44835514,-4.8382874,1.5239289
2659,-9.314062,-31.27479,32.17419
2660,-9.314062,-31.27479,32.17419
2661,-1.049851,-22.452154,10.1955185
2662,-1.049851,-22.452154,10.1955185
2663,-4.4751763,-6.230013,5.6129637
2664,-4.4751763,-6.230013,5.6129637
2665,-4.4751763,-6.230013,5.6129637
2666,-13.872688,-1.3456637,3.5814574
2667,-13.039089,-13.7686,-10.67169
2668,-13.039089,-13.7686,-10.67169
2669,-8.504391,-17.184654,18.364315
2670,-6.571289,-17.795422,21.84976
2671,13.586746,-18.571594,-18.052052
2672,13.586746,-18.571594,-18.052052
2673,14.221742,-16.870895,-22.474287
2674,2.1242282,-9.35145,-6.5129642
2675,-0.24975087,-7.0372915,8.64796
2676,-0.24975087,-7.0372915,8.64796
2677,3.501597,-8.366803,-13.004992
2678,3.501597,-8.366803,-13.004992
2679,3.501597,-8.366803,-13.004992
2680,-1.1575279,-8.625527,-3.2742786
2681,-1.1575279,-8.625527,-3.2742786
2682,-1.4449657,-10.132109,-0.9484551
2683,-0.33589247,-11.286944,2.1801605
2684,-0.33589247,-11.286944,2.1801605
2685,-0.33589247,-11.286944,2.1801605
2686,2.5292134,-11.330015,3.3565319
2687,2.5292134,-11.330015,3.3565319
2688,2.5292134,-11.330015,3.3565319
2689,1.166202,-8.2710905,1.5478572
2690,-3.667898,-5.2142596,1.5622141
2691,-3.667898,-5.2142596,1.5622141
2692,-3.9074793,-5.738886,-1.721935
2693,-3.9074793,-5.738886,-1.721935
2694,-3.9074793,-5.738886,-1.721935
2695,-3.9074793,-5.738886,-1.721935
2696,-2.582753,-6.1773705,-5.0662036
2697,-2.3551357,-11.646167,3.1983066
2698,-2.3551357,-11.646167,3.1983066
2699,-2.3551357,-11.646167,3.1983066
2700,-2.3551357,-11.646167,3.1983066
2701,0.13848461,-13.0259285,7.4192457
2702,0.13848461,-13.0259285,7.4192457
2703,3.3939197,-12.590136,1.4542379
2704,3.3939197,-12.590136,1.4542379
2705,3.5066817,-14.391333,-1.4584254
2706,3.5066817,-14.391333,-1.4584254
2707,3.5066817,-14.391333,-1.4584254
2708,7.049555,-11.897713,2.989832
2709,7.049555,-11.897713,2.989832
2710,8.206485,-11.945569,0.4866403
2711,8.85823,-12.067902,-1.3459628
2712,6.814759,-14.235799,0.5416752
2713,1.1853445,-17.740387,6.710073
2714,1.1853445,-17.740387,6.710073
2715,1.0510473,-17.977575,6.283851
2716,1.7865412,-17.733208,7.3977103
2717,2.9338996,-15.289838,3.7396827
2718,4.5798626,-14.060824,0.3714857
2719,2.766402,-12.726526,-3.5449667
2720,2.766402,-12.726526,-3.5449667
2721,-4.889733,-16.952251,-2.239383
2722,-4.889733,-16.952251,-2.239383
2723,-6.638288,-21.355045,-6.1441703
2724,-6.638288,-21.355045,-6.1441703
2725,-6.638288,-21.355045,-6.1441703
2726,-6.638288,-21.355045,-6.1441703
2727,-3.696612,-15.996319,-0.87637126
2728,-3.696612,-15.996319,-0.87637126
2729,-3.696612,-15.996319,-0.87637126
2730,-3.696612,-15.996319,-0.87637126
2731,-3.5913277,-9.109476,-3.717549
2732,-3.5913277,-9.109476,-3.717549
2733,-3.5913277,-9.109476,-3.717549
2734,-1.8041883,-6.172585,-3.2264223
2735,-1.8041883,-6.172585,-3.2264223
2736,0.25573292,-3.566203,-2.5435705
2737,3.6454654,-2.6799614,-2.225026
2738,3.6454654,-2.6799614,-2.225026
2739,3.9161534,-1.7551354,-1.7557336
2740,3.9161534,-1.7551354,-1.7557336
2741,2.198705,-0.41844487,-3.4612179
2742,2.198705,-0.41844487,-3.4612179
2743,2.198705,-0.41844487,-3.4612179
2744,2.198705,-0.41844487,-3.4612179
2745,-1.4736797,1.2080764,-4.342674
2746,-1.4736797,1.2080764,-4.342674
2747,-5.651548,3.6490545,-3.7127635
2748,-5.651548,3.6490545,-3.7127635
2749,-3.5171502,2.6907291,-3.7127635
2750,-3.5171502,2.6907291,-3.7127635
2751,0.2868396,-5.5184474,4.5948176
2752,0.2868396,-5.5184474,4.5948176
2753,-6.013163,-36.094532,21.614965
2754,-6.013163,-36.094532,21.614965
2755,-6.013163,-36.094532,21.614965
2756,-6.013163,-36.094532,21.614965
2757,3.8778682,-25.113571,15.786648
2758,3.8778682,-25.113571,15.786648
2759,0.552742,-7.468598,4.3002014
2760,0.552742,-7.468598,4.3002014
2761,-7.5870423,-7.166504,-2.3282163
2762,-7.5870423,-7.166504,-2.3282163
2763,-7.5870423,-7.166504,-2.3282163
2764,-7.5870423,-7.166504,-2.3282163
2765,-4.5424747,-16.540087,3.5216367
2766,-4.5424747,-16.540087,3.5216367
2767,-4.5424747,-16.540087,3.5216367
2768,-4.5424747,-16.540087,3.5216367
2769,-1.9959131,-5.4849477,-3.0418758
2770,-1.9959131,-5.4849477,-3.0418758
2771,-1.9959131,-5.4849477,-3.0418758
2772,3.499204,-5.0392847,-17.683258
2773,1.9016958,-6.297012,-14.375181
2774,1.9016958,-6.297012,-14.375181
2775,0.6942177,-8.424232,-4.4602213
2776,0.6942177,-8.424232,-4.4602213
2777,1.3914263,-9.2793665,-2.4933212
2778,5.0515475,-15.493228,6.235696
2779,5.0515475,-15.493228,6.235696
2780,5.0515475,-15.493228,6.235696
2781,5.0515475,-15.493228,6.235696
2782,5.0515475,-15.493228,6.235696
2783,-0.18245272,-5.0802617,-0.3924229
2784,-0.18245272,-5.0802617,-0.3924229
2785,-0.18245272,-5.0802617,-0.3924229
2786,-0.18245272,-5.0802617,-0.3924229
2787,-4.772186,-3.757928,1.8664017
2788,-4.7745786,-4.586742,-1.5831513
2789,-2.611467,-7.9666038,-2.4215364
2790,-2.611467,-7.9666038,-2.4215364
2791,-2.611467,-7.9666038,-2.4215364
2792,-2.611467,-7.9666038,-2.4215364
2793,-2.611467,-7.9666038,-2.4215364
2794,-2.0724835,-13.70878,4.415356
2795,-2.0724835,-13.70878,4.415356
2796,-2.0724835,-13.70878,4.415356
2797,3.4393835,-12.400804,7.9965143
2798,3.4393835,-12.400804,7.9965143
2799,3.4393835,-12.400804,7.9965143
2800,3.4393835,-12.400804,7.9965143
2801,-0.8365906,-13.13869,5.076373
2802,-0.8365906,-13.13869,5.076373
2803,-0.8365906,-13.13869,5.076373
2804,-0.8365906,-13.13869,5.076373
2805,6.2111692,-14.231013,-4.6779685
2806,6.2111692,-14.231013,-4.6779685
2807,6.2111692,-14.231013,-4.6779685
2808,6.2111692,-14.231013,-4.6779685
2809,1.4201403,-16.969002,6.4824557
2810,-1.6606189,-16.540087,7.400103
2811,-1.6606189,-16.540087,7.400103
2812,6.3164535,-12.791133,0.23988047
2813,6.3164535,-12.791133,0.23988047
2814,6.3164535,-12.791133,0.23988047
2815,7.693822,-11.792428,-2.2034905
2816,8.033902,-11.38505,-2.905485
2817,3.8515472,-11.605489,-4.2302113
2818,1.6525432,-13.0570345,-3.6672997
2819,-5.601299,-19.91307,-3.8874395
2820,-9.656834,-23.463121,-4.412066
2821,-7.941479,-19.381266,-0.5937191
2822,-7.941479,-19.381266,-0.5937191
2823,-5.541179,-14.906387,1.9525433
2824,-5.541179,-14.906387,1.9525433
2825,-5.536393,-13.890934,1.9262222
2826,-7.4455667,-13.399807,-2.984448
2827,-7.4455667,-13.399807,-2.984448
2828,-7.6947193,-13.205689,-4.074379
2829,-5.7352967,-9.406485,-4.3354955
2830,-2.3913271,-5.671887,-1.4392828
2831,-2.3913271,-5.671887,-1.4392828
2832,2.018944,-4.7662034,-2.0192432
2833,2.2728825,-4.639384,-2.2947168
2834,2.2728825,-4.639384,-2.2947168
2835,4.644469,-3.5853457,-2.0141585
2836,4.644469,-3.5853457,-2.0141585
2837,4.644469,-3.5853457,-2.0141585
2838,3.0323045,-1.7288144,-3.7031922
2839,3.0323045,-1.7288144,-3.7031922
2840,3.0323045,-1.7288144,-3.7031922
2841,-2.3790638,2.7364917,-2.6132615
2842,-2.3790638,2.7364917,-2.6132615
2843,-2.3790638,2.7364917,-2.6132615
2844,-2.3790638,2.7364917,-2.6132615
2845,0.37328035,-0.018544376,-2.4765713
2846,0.37328035,-0.018544376,-2.4765713
2847,0.37328035,-0.018544376,-2.4765713
2848,0.37328035,-0.018544376,-2.4765713
2849,-4.5592246,-22.2703,22.731216
2850,-4.5592246,-22.2703,22.731216
2851,-4.5592246,-22.2703,22.731216
2852,-7.201499,-33.234512,24.532713
2853,-0.73579293,-16.753347,5.921937
2854,-0.73579293,-16.753347,5.921937
2855,-6.5928245,-2.6536403,1.9740787
2856,-6.5928245,-2.6536403,1.9740787
2857,-12.509677,-6.538986,-1.1949158
2858,-12.509677,-6.538986,-1.1949158
2859,-8.962018,-16.05883,5.1625147
2860,-8.962018,-16.05883,5.1625147
2861,-8.962018,-16.05883,5.1625147
2862,-8.962018,-16.05883,5.1625147
2863,3.1375887,-11.0042925,-6.690332
2864,3.1375887,-11.0042925,-6.690332
2865,-1.1216356,-7.379764,3.9026937
2866,-1.1216356,-7.379764,3.9026937
2867,-1.1216356,-7.379764,3.9026937
2868,3.118446,-5.877969,-14.65544
2869,3.118446,-5.877969,-14.65544
2870,-0.58265233,-7.4853473,-6.9873414
2871,-0.58265233,-7.4853473,-6.9873414
2872,-1.6773686,-9.29133,-2.3832514
2873,-1.6773686,-9.29133,-2.3832514
2874,-0.7070791,-12.64517,3.342175
2875,3.6047873,-13.5481615,3.478566
2876,3.6047873,-13.5481615,3.478566
2877,3.6047873,-13.5481615,3.478566
2878,3.6047873,-13.5481615,3.478566
2879,-2.6907291,-5.262116,0.9945169
2880,-2.6907291,-5.262116,0.9945169
2881,-2.6042883,-4.3088756,0.8147561
2882,-2.50379,-5.671887,-4.793123
2883,-2.50379,-5.671887,-4.793123
2884,-2.50379,-5.671887,-4.793123
2885,-2.50379,-5.671887,-4.793123
2886,-4.5206404,-10.8149605,3.4307094
2887,-4.5206404,-10.8149605,3.4307094
2888,-4.5206404,-10.8149605,3.4307094
2889,-4.5206404,-10.8149605,3.4307094
2890,-4.7988057,-13.787744,4.3935213
2891,-4.7988057,-13.787744,4.3935213
2892,0.19591236,-10.616056,8.49482
2893,0.19591236,-10.616056,8.49482
2894,0.19591236,-10.616056,8.49482
2895,0.19591236,-10.616056,8.49482
2896,4.51735,-12.609278,2.3982065
2897,4.51735,-12.609278,2.3982065
2898,4.51735,-12.609278,2.3982065
2899,8.113164,-12.946965,-2.2010977
2900,8.113164,-12.946965,-2.2010977
2901,8.113164,-12.946965,-2.2010977
2902,2.306382,-15.375979,5.4667025
2903,2.306382,-15.375979,5.4667025
2904,1.8894325,-16.370197,7.2897344
2905,1.8894325,-16.370197,7.2897344
2906,1.8894325,-16.370197,7.2897344
2907,1.8894325,-16.370197,7.2897344
2908,5.6578293,-12.496516,-2.5965116
2909,2.902793,-11.732308,-4.821837
2910,2.902793,-11.732308,-4.821837
2911,-5.203492,-17.158333,-1.192523
2912,-5.203492,-17.158333,-1.192523
2913,-9.318848,-20.564516,-4.7428737
2914,-9.318848,-20.564516,-4.7428737
2915,-9.318848,-20.564516,-4.7428737
2916,-9.318848,-20.564516,-4.7428737
2917,-5.5052867,-15.256338,0.119940236
2918,-5.5052867,-15.256338,0.119940236
2919,-5.5052867,-15.256338,0.119940236
2920,-5.1053863,-14.868103,-0.39960137
2921,-6.604789,-11.493027,-3.365505
2922,-6.604789,-11.493027,-3.365505
2923,-4.132704,-9.463913,-4.364209
2924,-4.132704,-9.463913,-4.364209
2925,0.033200413,-6.948757,-2.225026
2926,2.728117,-5.8731833,-2.0264218
2927,2.728117,-5.8731833,-2.0264218
2928,4.2011986,-5.8298135,-1.4464613
2929,4.2131624,-5.144868,-0.9242278
2930,2.7089744,-2.169692,-3.528217
2931,2.7089744,-2.169692,-3.528217
2932,2.7089744,-2.169692,-3.528217
2933,2.7089744,-2.169692,-3.528217
2934,0.73489565,0.67387867,-4.666004
2935,-1.3995022,3.4381871,-3.5617166
2936,-1.3995022,3.4381871,-3.5617166
2937,-2.9156544,4.465904,-1.5520446
2938,-2.9156544,4.465904,-1.5520446
2939,-3.1073792,4.62413,-1.7581264
2940,-0.04366901,-3.24048,3.6583266
2941,-0.04366901,-3.24048,3.6583266
2942,-0.04366901,-3.24048,3.6583266
2943,-0.42681974,-4.5412784,5.732605
2944,-10.756336,-31.380373,22.031616
2945,-10.756336,-31.380373,22.031616
2946,-10.756336,-31.380373,22.031616
2947,-10.756336,-31.380373,22.031616
2948,-4.269394,-21.467806,8.616854
2949,-14.498113,-11.593525,4.293023
2950,-14.498113,-11.593525,4.293023
2951,-14.498113,-11.593525,4.293023
2952,-14.498113,-11.593525,4.293023
2953,7.4015985,-10.489237,-16.26282
2954,7.4015985,-10.489237,-16.26282
2955,7.4015985,-10.489237,-16.26282
2956,7.4015985,-10.489237,-16.26282
2957,-1.3899308,-5.441877,-6.472286
2958,-1.3899308,-5.441877,-6.472286
2959,0.21744776,-10.089038,-12.676577
2960,0.21744776,-10.089038,-12.676577
2961,0.21744776,-10.089038,-12.676577
2962,0.21744776,-10.089038,-12.676577
2963,-0.52283174,-10.525129,-5.7897334
2964,-0.6520442,-10.898709,-1.654936
2965,-0.6520442,-10.898709,-1.654936
2966,5.252844,-14.333905,3.100201
2967,5.252844,-14.333905,3.100201
2968,5.252844,-14.333905,3.100201
2969,5.252844,-14.333905,3.100201
2970,-0.59700924,-5.8561344,0.07686943
2971,-0.59700924,-5.8561344,0.07686943
2972,-0.59700924,-5.8561344,0.07686943
2973,-0.59700924,-5.8561344,0.07686943
2974,-3.330211,-4.162614,2.5348964
2975,-3.330211,-4.162614,2.5348964
2976,-4.1279182,-4.572385,-0.7375876
2977,-4.1279182,-4.572385,-0.7375876
2978,-4.1279182,-4.572385,-0.7375876
2979,-4.1279182,-4.572385,-0.7375876
2980,-2.5301108,-5.726922,-3.3293135
2981,-1.8185452,-7.468598,-3.2599218
2982,-2.1972094,-10.199407,-1.4273187
2983,-2.1972094,-10.199407,-1.4273187
2984,-0.5778667,-11.66531,7.198807
2985,-0.5778667,-11.66531,7.198807
2986,-0.5778667,-11.66531,7.198807
2987,-0.5778667,-11.66531,7.198807
2988,3.1280174,-11.790035,0.9562318
2989,2.9796624,-12.532409,-1.1303096
2990,2.9796624,-12.532409,-1.1303096
2991,2.9796624,-12.532409,-1.1303096
2992,2.3709881,-13.191332,4.6642094
2993,2.3709881,-13.191332,4.6642094
2994,2.3709881,-13.191332,4.6642094
2995,4.4024944,-16.05883,5.8525453
2996,4.4024944,-16.05883,5.8525453
2997,4.4024944,-16.05883,5.8525453
2998,3.202195,-16.228722,5.323133
2999,3.202195,-16.228722,5.323133
3000,3.202195,-16.228722,5.323133
3001,3.202195,-16.228722,5.323133
3002,5.2863436,-12.980465,-1.492224
3003,0.70378894,-12.175579,-4.2661037
3004,0.70378894,-12.175579,-4.2661037
3005,-5.299205,-16.92593,-4.3331027
3006,-5.299205,-16.92593,-4.3331027
3007,-7.8026958,-21.64996,-5.2289157
3008,-7.8026958,-21.64996,-5.2289157
3009,-7.7500534,-21.448664,-4.304389
3010,-5.5459647,-17.75953,-0.30149564
3011,-5.598906,-16.128223,2.0318055
3012,-5.598906,-16.128223,2.0318055
3013,-5.598906,-16.128223,2.0318055
3014,-4.56401,-9.952646,-4.1847477
3015,-4.56401,-9.952646,-4.1847477
3016,-4.56401,-9.952646,-4.1847477
3017,-3.4692938,-7.9833536,-4.404887
3018,0.7396813,-5.5519466,-1.6429719
3019,0.7396813,-5.5519466,-1.6429719
3020,2.8334012,-5.0850472,-1.6381862
3021,2.8334012,-5.0850472,-1.6381862
3022,2.8334012,-5.0850472,-1.6381862
3023,3.144767,-4.800002,-1.939981
3024,3.144767,-4.800002,-1.939981
3025,0.907478,0.48215377,-4.239783
3026,0.907478,0.48215377,-4.239783
3027,0.907478,0.48215377,-4.239783
3028,0.907478,0.48215377,-4.239783
3029,-2.4415765,2.5423741,-4.165605
3030,-2.4415765,2.5423741,-4.165605
3031,-3.7280176,2.8322048,-2.5052853
3032,-3.7280176,2.8322048,-2.5052853
3033,-2.1230319,1.5553347,-2.618047
3034,-2.1230319,1.5553347,-2.618047
3035,-2.1230319,1.5553347,-2.618047
3036,-2.1230319,1.5553347,-2.618047
3037,-4.8179483,-19.721346,23.284557
3038,-4.8179483,-19.721346,23.284557
3039,-4.8179483,-19.721346,23.284557
3040,-4.8179483,-19.721346,23.284557
3041,-6.7175503,-31.8715,22.216162
3042,-1.224527,-19.259232,9.297313
3043,-12.18874,-8.452945,3.7229328
3044,-12.18874,-8.452945,3.7229328
3045,-12.18874,-8.452945,3.7229328
3046,-12.18874,-8.452945,3.7229328
3047,-12.18874,-8.452945,3.7229328
3048,-10.042377,-27.322445,6.602396
3049,-10.042377,-27.322445,6.602396
3050,6.6110697,-15.751951,-9.957731
3051,1.5828521,-3.784249,-11.687443
3052,1.5828521,-3.784249,-11.687443
3053,0.29910284,-5.9449677,-17.800507
3054,0.29910284,-5.9449677,-17.800507
3055,0.29910284,-5.9449677,-17.800507
3056,0.29910284,-5.9449677,-17.800507
3057,0.9696914,-8.244471,-16.20539
3058,-0.38853458,-10.525129,-9.222238
3059,1.2738789,-13.193725,3.0930223
3060,1.2738789,-13.193725,3.0930223
3061,3.4824543,-15.567704,9.424132
3062,3.4824543,-15.567704,9.424132
3063,5.1882377,-13.986647,2.9563324
3064,5.1882377,-13.986647,2.9563324
3065,3.0323045,-7.066005,-1.7940187
3066,3.0323045,-7.066005,-1.7940187
3067,3.0323045,-7.066005,-1.7940187
3068,3.0323045,-7.066005,-1.7940187
3069,-4.4201417,-2.1361923,2.4987051
3070,-4.4201417,-2.1361923,2.4987051
3071,-4.4201417,-2.1361923,2.4987051
3072,-2.8151557,-4.203292,-4.56072
3073,-2.8151557,-4.203292,-4.56072
3074,-0.47946185,-8.635098,-1.9686948
3075,-0.47946185,-8.635098,-1.9686948
3076,-0.47946185,-8.635098,-1.9686948
3077,-0.6999006,-14.012968,3.670291
3078,-0.8748758,-15.280267,6.1854467
3079,1.9208384,-15.227325,7.8143606
3080,1.9208384,-15.227325,7.8143606
3081,1.9208384,-15.227325,7.8143606
3082,2.7735806,-12.896716,2.1897318
3083,-1.4593227,-12.877573,4.223631
3084,-1.4593227,-12.877573,4.223631
3085,-1.2077773,-13.490734,6.094519
3086,-1.2077773,-13.490734,6.094519
3087,10.247562,-15.138791,2.309672
3088,10.247562,-15.138791,2.309672
3089,10.247562,-15.138791,2.309672
3090,10.247562,-15.138791,2.309672
3091,4.0381875,-17.067106,4.5565324
3092,4.0381875,-17.067106,4.5565324
3093,4.0381875,-17.067106,4.5565324
3094,3.2862427,-15.826428,-0.37567315
3095,3.2862427,-15.826428,-0.37567315
3096,3.2862427,-15.826428,-0.37567315
3097,3.2862427,-15.826428,-0.37567315
3098,-3.1962128,-13.730315,-3.5880375
3099,-6.5425754,-16.149757,-4.4817567
3100,-6.5425754,-16.149757,-4.4817567
3101,-7.9797645,-18.90928,0.14895321
3102,-7.9797645,-18.90928,0.14895321
3103,-7.9797645,-18.90928,0.14895321
3104,-7.9797645,-18.90928,0.14895321
3105,-7.4793653,-18.212372,1.6938193
3106,-6.3747787,-15.550955,1.8640088
3107,-5.7041903,-13.806886,-1.1159526
3108,-5.7041903,-13.806886,-1.1159526
3109,-5.7041903,-13.806886,-1.1159526
3110,0.7325028,-6.6538415,-2.1723838
3111,0.7325028,-6.6538415,-2.1723838
3112,0.7325028,-6.6538415,-2.1723838
3113,1.3600205,-5.8636117,-0.87158567
3114,1.3600205,-5.8636117,-0.87158567
3115,1.3600205,-5.8636117,-0.87158567
3116,1.9160527,-3.9373896,-1.9950159
3117,1.9160527,-3.9373896,-1.9950159
3118,1.9160527,-3.9373896,-1.9950159
3119,2.4092734,-0.6939186,-3.7007992
3120,2.4092734,-0.6939186,-3.7007992
3121,1.6764714,0.9613165,-3.7486558
3122,1.6764714,0.9613165,-3.7486558
3123,-0.44117668,2.585445,-1.7003996
3124,-0.44117668,2.585445,-1.7003996
3125,-0.44117668,2.585445,-1.7003996
3126,-1.2604194,2.5639095,-0.40677986
3127,0.06430711,2.0584257,0.5273183
3128,0.06430711,2.0584257,0.5273183
3129,-2.7026932,-4.8239303,4.38395
3130,-2.7026932,-4.8239303,4.38395
3131,-5.040481,-17.498413,20.788544
3132,-5.040481,-17.498413,20.788544
3133,-3.792624,-24.359234,19.964516
3134,-6.0323057,-29.277082,23.646172
3135,-1.7515461,-22.629522,14.186447
3136,-1.7515461,-22.629522,14.186447
3137,-15.69572,-16.073189,2.079662
3138,-15.69572,-16.073189,2.079662
3139,-15.69572,-16.073189,2.079662
3140,-15.69572,-16.073189,2.079662
3141,-6.8515487,-22.147966,7.7186475
3142,-6.8515487,-22.147966,7.7186475
3143,0.3493521,-0.5814559,-5.959624
3144,0.3493521,-0.5814559,-5.959624
3145,0.3493521,-0.5814559,-5.959624
3146,0.3493521,-0.5814559,-5.959624
3147,0.3493521,-0.5814559,-5.959624
3148,-3.5291142,-2.2007985,-0.35653058
3149,-0.49381876,-4.962714,-11.706586
3150,-0.12502499,-9.375379,-11.922238
3151,-0.12502499,-9.375379,-11.922238
3152,-0.8892327,-12.384053,-3.2096725
3153,2.9626136,-15.850356,5.986543
3154,2.9626136,-15.850356,5.986543
3155,5.3246284,-15.536597,3.3780673
3156,5.3246284,-15.536597,3.3780673
3157,5.3246284,-15.536597,3.3780673
3158,6.256633,-12.544373,-0.4621139
3159,1.7291135,-7.775178,-1.4679967
3160,1.7291135,-7.775178,-1.4679967
3161,-4.82752,-3.661916,2.1203399
3162,-4.82752,-3.661916,2.1203399
3163,-4.82752,-3.661916,2.1203399
3164,-4.82752,-3.661916,2.1203399
3165,-4.4225345,-3.3314073,1.2747762
3166,-2.9084759,-3.4271202,-1.2765709
3167,-1.1048858,-8.72124,-2.548356
3168,-1.1048858,-8.72124,-2.548356
3169,-1.1048858,-8.72124,-2.548356
3170,-1.1048858,-8.72124,-2.548356
3171,-1.4928222,-9.967004,-1.5496517
3172,-3.071487,-12.990036,1.6866409
3173,-3.2368908,-15.907784,6.2644095
3174,-3.2368908,-15.907784,6.2644095
3175,2.536392,-11.169397,-4.912764
3176,2.536392,-11.169397,-4.912764
3177,2.536392,-11.169397,-4.912764
3178,2.536392,-11.169397,-4.912764
3179,4.299304,-14.1110735,4.7506504
3180,4.299304,-14.1110735,4.7506504
3181,7.5789666,-13.454842,-2.0718853
3182,7.5789666,-13.454842,-2.0718853
3183,7.5789666,-13.454842,-2.0718853
3184,7.5789666,-13.454842,-2.0718853
3185,1.4608182,-14.964114,6.5928245
3186,1.4608182,-14.964114,6.5928245
3187,0.12412767,-15.716059,7.4240313
3188,3.8587255,-15.258731,3.1456645
3189,3.8587255,-15.258731,3.1456645
3190,3.8587255,-15.258731,3.1456645
3191,3.9783669,-14.638093,2.606681
3192,2.754438,-12.369697,-4.009773
3193,-3.19382,-14.78914,-3.8850467
3194,-3.19382,-14.78914,-3.8850467
3195,-3.19382,-14.78914,-3.8850467
3196,-7.943872,-20.135902,-5.3440704
3197,-7.943872,-20.135902,-5.3440704
3198,-7.769196,-21.319153,0.7573284
3199,-6.8395844,-20.976679,2.225624
3200,-4.8011985,-18.621843,1.2460624
3201,-4.8011985,-18.621843,1.2460624
3202,-8.985947,-13.854742,-2.819044
3203,-8.985947,-13.854742,-2.819044
3204,-8.985947,-13.854742,-2.819044
3205,-8.985947,-13.854742,-2.819044
3206,-2.4702902,-7.830213,-3.0107691
3207,-1.7970098,-6.8431735,-1.8610178
3208,3.757928,-4.9674997,-1.4057833
3209,3.757928,-4.9674997,-1.4057833
3210,3.757928,-4.9674997,-1.4057833
3211,3.757928,-4.9674997,-1.4057833
3212,3.566502,-2.0234306,-4.0480576
3213,3.566502,-2.0234306,-4.0480576
3214,3.566502,-2.0234306,-4.0480576
3215,2.0644078,0.9421739,-4.9920263
3216,2.0644078,0.9421739,-4.9920263
3217,0.2533401,2.8226335,-5.094918
3218,-1.9695921,4.9378886,-2.958127
3219,-1.9695921,4.9378886,-2.958127
3220,-1.5119648,5.4290156,0.19920248
3221,-1.5119648,5.4290156,0.19920248
3222,1.4009976,3.941278,-2.5124638
3223,2.2561326,2.8298118,-2.687439
3224,-7.472187,-16.47309,21.837797
3225,-7.472187,-16.47309,21.837797
3226,-7.472187,-16.47309,21.837797
3227,-7.472187,-16.47309,21.837797
3228,-14.761622,-28.680672,23.351557
3229,-11.424532,-29.447271,21.08316
3230,-0.82701933,-22.413868,9.088838
3231,-3.4426737,-8.065009,9.306884
3232,-3.4426737,-8.065009,9.306884
3233,-2.2522442,2.355435,-13.421641
3234,-2.2522442,2.355435,-13.421641
3235,-2.2522442,2.355435,-13.421641
3236,-16.028622,-2.754139,-7.4856467
3237,-15.731612,-8.048259,10.468599
3238,-9.108279,-18.54288,35.23581
3239,7.775178,-27.418158,-32.355747
3240,7.775178,-27.418158,-32.355747
3241,-1.7587247,-10.230514,14.112269
3242,-1.7587247,-10.230514,14.112269
3243,3.5784662,-4.3591247,-11.289637
3244,3.5784662,-4.3591247,-11.289637
3245,3.5784662,-4.3591247,-11.289637
3246,3.5784662,-4.3591247,-11.289637
3247,-0.76689965,-6.22762,-4.098307
3248,-0.76689965,-6.22762,-4.098307
3249,-1.0088738,-7.542775,-2.984448
3250,-1.0208379,-11.176576,-1.2020943
3251,0.023330022,-15.067006,1.0208379
3252,0.023330022,-15.067006,1.0208379
3253,3.9017963,-13.694423,2.364707
3254,3.9017963,-13.694423,2.364707
3255,3.403491,-11.801999,2.4197419
3256,0.11455639,-7.346265,2.4293132
3257,-3.8404803,-4.922036,3.2676985
3258,-3.8404803,-4.922036,3.2676985
3259,-3.8404803,-4.922036,3.2676985
3260,-3.8404803,-4.922036,3.2676985
3261,-3.9026937,-5.08744,3.3493536
3262,-4.048955,-5.901897,-0.78783685
3263,-4.132704,-6.2587266,-3.1546376
3264,-4.1255255,-6.828817,-5.521438
3265,-3.7109687,-9.952646,-4.764409
3266,-3.7109687,-9.952646,-4.764409
3267,-3.3613176,-12.192328,0.6206384
3268,4.205984,-11.442478,6.9065833
3269,4.205984,-11.442478,6.9065833
3270,4.205984,-11.442478,6.9065833
3271,4.205984,-11.442478,6.9065833
3272,-1.9528424,-12.793526,0.65922266
3273,-2.1708884,-12.978072,1.4327025
3274,-2.1708884,-12.978072,1.4327025
3275,-2.1708884,-12.978072,1.4327025
3276,2.335096,-14.599808,4.8008995
3277,5.7152567,-15.344872,3.4402807
3278,9.861719,-15.033506,0.24227329
3279,-0.16331014,-15.663417,4.887041
3280,-0.16331014,-15.663417,4.887041
3281,-0.16331014,-15.663417,4.887041
3282,-0.16331014,-15.663417,4.887041
3283,3.255136,-17.29951,6.242874
3284,3.255136,-17.29951,6.242874
3285,3.255136,-17.29951,6.242874
3286,-0.5587241,-13.301402,-6.4387865
3287,-0.5587241,-13.301402,-6.4387865
3288,-0.5587241,-13.301402,-6.4387865
3289,-6.003592,-17.560627,-3.9308095
3290,-6.003592,-17.560627,-3.9308095
3291,-6.437291,-17.95604,-3.7797625
3292,-7.3809605,-19.28316,-0.88354975
3293,-5.816653,-17.936897,2.228017
3294,-5.816653,-17.936897,2.228017
3295,-4.532903,-16.878073,1.1309078
3296,-4.254738,-16.156937,-0.035593238
3297,-6.0227346,-15.239589,-1.0896316
3298,-6.3125653,-14.367405,-1.762912
3299,-6.02752,-13.243975,-3.094817
3300,-3.845266,-9.597911,-3.3293135
3301,-3.493222,-8.560922,-3.1666017
3302,-0.5347959,-6.4911294,-2.716153
3303,4.107878,-5.671887,-2.1245275
3304,4.107878,-5.671887,-2.1245275
3305,4.107878,-5.671887,-2.1245275
3306,4.107878,-5.671887,-2.1245275
3307,5.9548383,-4.708776,-2.0045872
3308,3.7989051,-3.4896326,-2.7089744
3309,3.7989051,-3.4896326,-2.7089744
3310,1.6211374,-2.0832512,-4.0241294
3311,-1.0399805,0.2330011,-3.5593238
3312,-1.3971093,0.52283174,-3.542574
3313,-1.943271,1.4189439,-3.3583267
3314,-3.140879,3.373581,-1.9543378
3315,-3.140879,3.373581,-1.9543378
3316,-1.5047864,-1.7359928,1.9046868
3317,-1.5047864,-1.7359928,1.9046868
3318,-1.5047864,-1.7359928,1.9046868
3319,-0.51086766,-7.700701,10.176375
3320,-0.51086766,-7.700701,10.176375
3321,-9.9682,-25.540092,19.748863
3322,-9.9682,-25.540092,19.748863
3323,-9.9682,-25.540092,19.748863
3324,-9.9682,-25.540092,19.748863
3325,-4.616652,-20.792133,14.260625
3326,-0.42681974,-11.06172,8.81815
3327,-5.2513485,-9.18126,-6.802795
3328,-5.2513485,-9.18126,-6.802795
3329,-5.2513485,-9.18126,-6.802795
3330,-12.608082,-13.977076,-5.8710895
3331,-10.971989,-15.800107,3.7109687
3332,-3.6631124,-15.404693,4.63071
3333,-0.24735804,-9.792028,-8.76491
3334,-0.24735804,-9.792028,-8.76491
3335,-3.8237305,-7.734201,-5.0997033
3336,-5.7759748,-8.000103,2.7502506
3337,-3.7037904,-8.867501,-3.4995031
3338,0.64636123,-8.862716,-14.969199
3339,1.6211374,-8.517551,-14.315062
3340,0.07148558,-10.024431,-5.5190454
3341,0.07148558,-10.024431,-5.5190454
3342,1.3241283,-11.75175,-0.29910284
3343,3.7220356,-12.846467,3.028117
3344,3.7220356,-12.846467,3.028117
3345,4.6731825,-13.243975,3.0978081
3346,4.9677987,-12.647563,1.969293
3347,5.3246284,-12.020045,1.4303098
3348,5.4756756,-11.135898,0.60628146
3349,1.558924,-6.7354965,-0.90508515
3350,1.558924,-6.7354965,-0.90508515
3351,-0.721436,-4.232006,-0.20817557
3352,-1.9073788,-3.9302113,0.9275179
3353,-2.9781668,-3.6284165,2.1634107
3354,-3.9314077,-3.7651064,1.3226327
3355,-4.6094737,-4.136293,0.3044867
3356,-5.3449674,-4.912465,-0.55064833
3357,-5.5340004,-5.523233,-0.28235307
3358,-5.091029,-7.988139,-0.097806625
3359,-4.7916274,-9.080762,0.08165507
3360,-3.8237305,-12.661921,0.6302097
3361,-1.6247265,-16.39891,6.020342
3362,-1.6247265,-16.39891,6.020342
3363,3.5928233,-9.506984,-0.17467605
3364,3.5928233,-9.506984,-0.17467605
3365,3.5928233,-9.506984,-0.17467605
3366,3.5928233,-9.506984,-0.17467605
3367,0.39720857,-10.759925,0.8673982
3368,-0.29282168,-12.6116705,3.888337
3369,5.3943195,-14.408082,2.865405
3370,6.352346,-14.61895,2.105983
3371,8.980264,-14.954245,0.29970104
3372,10.908579,-14.853745,0.1680958
3373,10.808081,-14.765211,0.61106706
3374,1.8583258,-16.636099,5.3350973
3375,-0.64965135,-16.315163,4.7027936
3376,-0.6664011,-16.300806,3.5072799
3377,-0.6664011,-16.300806,3.5072799
3378,3.908975,-16.360626,5.2082777
3379,3.6335013,-15.407086,1.0040882
3380,-0.053240303,-13.89572,-5.5980086
3381,-1.5239289,-13.871492,-6.771688
3382,-4.0944185,-15.261124,-6.146563
3383,-7.117451,-18.700806,-2.888735
3384,-7.89123,-19.91307,-1.8227327
3385,-5.323133,-15.847963,-0.08584251
3386,-5.323133,-15.847963,-0.08584251
3387,-5.323133,-15.847963,-0.08584251
3388,-5.323133,-15.847963,-0.08584251
3389,-5.2896338,-11.478371,-1.2358929
3390,-5.2896338,-11.478371,-1.2358929
3391,-5.2896338,-11.478371,-1.2358929
3392,-5.2896338,-11.478371,-1.2358929
3393,-3.8356948,-9.7704935,-3.0466614
3394,-1.1623136,-8.335697,-3.4947174
3395,2.8549366,-6.6442704,-1.5855441
3396,2.8549366,-6.6442704,-1.5855441
3397,2.8549366,-6.6442704,-1.5855441
3398,2.8549366,-6.6442704,-1.5855441
3399,2.7711878,-3.6690943,-2.8289146
3400,2.7711878,-3.6690943,-2.8289146
3401,2.617748,-3.0343983,-3.1235309
3402,1.8176479,-1.6402799,-4.5678983
3403,0.94337034,0.73130643,-5.0303116
3404,0.94337034,0.73130643,-5.0303116
3405,-3.0667014,3.6993039,-1.288535
3406,-3.0667014,3.6993039,-1.288535
3407,-3.0667014,3.6993039,-1.288535
3408,-3.0667014,3.6993039,-1.288535
3409,-1.7635103,3.1292138,0.73818576
3410,-1.7635103,3.1292138,0.73818576
3411,-0.5033901,2.3985057,-0.07627122
3412,0.80907315,-1.2759727,0.93230355
3413,-9.337991,-26.402405,23.006691
3414,-9.337991,-26.402405,23.006691
3415,-9.337991,-26.402405,23.006691
3416,-9.337991,-26.402405,23.006691
3417,-9.337991,-26.402405,23.006691
3418,-9.337991,-26.402405,23.006691
3419,-9.337991,-26.402405,23.006691
3420,-9.337991,-26.402405,23.006691
3421,-9.337991,-26.402405,23.006691
3422,-9.337991,-26.402405,23.006691
3423,-9.337991,-26.402405,23.006691
3424,-9.337991,-26.402405,23.006691
3425,-9.337991,-26.402405,23.006691
3426,3.7893338,-8.199007,-14.947664
3427,-3.5530424,-6.4887366,-5.047061
3428,-3.5530424,-6.4887366,-5.047061
3429,-3.5530424,-6.4887366,-5.047061
3430,-3.5530424,-6.4887366,-5.047061
3431,0.622433,-10.685748,-13.330714
3432,0.622433,-10.685748,-13.330714
3433,-0.24496523,-13.857135,-2.699403
3434,-0.24496523,-13.857135,-2.699403
3435,-0.24496523,-13.857135,-2.699403
3436,3.4106696,-15.237196,5.7373905
3437,3.8467615,-15.387943,6.242874
3438,3.949653,-14.312369,4.0366917
3439,1.6692929,-7.2673016,-0.7902297
3440,1.6692929,-7.2673016,-0.7902297
3441,1.6692929,-7.2673016,-0.7902297
3442,1.6692929,-7.2673016,-0.7902297
3443,1.6692929,-7.2673016,-0.7902297
3444,-3.6750765,-3.2500513,1.102194
3445,-3.6750765,-3.2500513,1.102194
3446,-3.6750765,-3.2500513,1.102194
3447,-3.6750765,-3.2500513,1.102194
3448,-2.0916262,-5.712565,-3.4325042
3449,-2.0916262,-5.712565,-3.4325042
3450,-1.0016954,-7.262516,-5.406284
3451,-1.0016954,-7.262516,-5.406284
3452,-1.4641083,-8.146365,-4.028915
3453,-2.0485554,-9.69153,-1.1685947
3454,-3.9457645,-14.381762,6.9185476
3455,-3.9457645,-14.381762,6.9185476
3456,5.5522456,-12.4630165,2.5899315
3457,5.5522456,-12.4630165,2.5899315
3458,5.5522456,-12.4630165,2.5899315
3459,5.5522456,-12.4630165,2.5899315
3460,7.0758758,-12.649956,-2.3641088
3461,5.509175,-13.32533,-1.192523
3462,1.8104694,-14.317155,7.73779
3463,4.445565,-13.519448,0.00029910283
3464,4.445565,-13.519448,0.00029910283
3465,4.445565,-13.519448,0.00029910283
3466,6.402595,-14.386547,-2.9557343
3467,6.5464635,-15.359229,-0.72083783
3468,-1.7778672,-15.891034,6.966404
3469,-1.7778672,-15.891034,6.966404
3470,-1.7778672,-15.891034,6.966404
3471,-1.7778672,-15.891034,6.966404
3472,-1.7778672,-15.891034,6.966404
3473,1.8272192,-13.560126,4.6139603
3474,3.9544384,-11.533704,-2.0934207
3475,2.5411777,-11.3778715,-7.219744
3476,2.5411777,-11.3778715,-7.219744
3477,0.55034924,-13.521841,-4.9007998
3478,-2.9542387,-17.934505,-1.5999011
3479,-6.454041,-18.135502,1.9118652
3480,-6.454041,-18.135502,1.9118652
3481,-6.454041,-18.135502,1.9118652
3482,-6.454041,-18.135502,1.9118652
3483,-5.0309095,-16.427626,3.1719856
3484,-4.7482576,-15.675381,1.4422739
3485,-4.7482576,-15.675381,1.4422739
3486,-8.085348,-15.090934,-1.422533
3487,-7.170093,-13.900505,-2.9796624
3488,-4.2741795,-10.419846,-3.4995031
3489,2.2585254,-5.032106,-1.7410775
3490,2.2585254,-5.032106,-1.7410775
3491,2.2585254,-5.032106,-1.7410775
3492,2.2585254,-5.032106,-1.7410775
3493,4.560421,-3.8368912,-1.817947
3494,4.560421,-3.8368912,-1.817947
3495,2.5627131,-0.67477596,-4.3115673
3496,2.5627131,-0.67477596,-4.3115673
3497,2.5627131,-0.67477596,-4.3115673
3498,2.5627131,-0.67477596,-4.3115673
3499,-0.48185465,1.4835501,-4.9920263
3500,-0.48185465,1.4835501,-4.9920263
3501,-3.3469608,2.9952157,-3.566502
3502,-3.3469608,2.9952157,-3.566502
3503,-3.493222,4.087539,-2.5893333
3504,-3.493222,4.087539,-2.5893333
3505,-0.8772686,2.7053852,-2.819044
3506,-0.8772686,2.7053852,-2.819044
3507,1.1709876,0.32422748,-1.1159526
3508,-4.384249,-19.994427,20.20649
3509,-4.384249,-19.994427,20.20649
3510,-4.384249,-19.994427,20.20649
3511,-4.384249,-19.994427,20.20649
3512,-0.52283174,-13.524234,8.46132
3513,-0.52283174,-13.524234,8.46132
3514,-0.52283174,-13.524234,8.46132
3515,-0.52283174,-13.524234,8.46132
3516,-1.6917256,-3.6020954,5.627321
3517,-1.5502499,-0.349053,1.1309078
3518,-14.917155,-8.050652,-7.13121
3519,-14.917155,-8.050652,-7.13121
3520,-14.917155,-8.050652,-7.13121
3521,-14.917155,-8.050652,-7.13121
3522,-12.61526,-21.693031,16.581963
3523,-6.0394845,-25.808388,16.593925
3524,8.292626,-22.500309,-12.463615
3525,10.362417,-15.91257,-20.37339
3526,2.1577277,-9.725029,-4.182355
3527,4.265805,-6.6514487,-15.019448
3528,4.265805,-6.6514487,-15.019448
3529,4.265805,-6.6514487,-15.019448
3530,4.265805,-6.6514487,-15.019448
3531,-0.8437691,-7.542775,-3.8371902
3532,-0.8437691,-7.542775,-3.8371902
3533,-2.513361,-8.82443,0.75972116
3534,-2.513361,-8.82443,0.75972116
3535,-1.8448663,-10.173085,2.8749764
3536,-0.43878385,-10.450952,3.2341988
3537,-0.43878385,-10.450952,3.2341988
3538,1.4392828,-10.95165,2.6186452
3539,2.6344976,-11.080863,1.9405792
3540,-1.0833504,-7.164111,0.5057829
3541,-1.0833504,-7.164111,0.5057829
3542,-1.0833504,-7.164111,0.5057829
3543,-2.50379,-5.3243294,1.0112667
3544,-2.50379,-5.3243294,1.0112667
3545,-2.6979074,-5.1592245,0.34037903
3546,-2.9374888,-5.1640105,-2.675475
3547,-2.9156544,-5.0850472,-3.9044883
3548,-2.7385855,-5.0512486,-5.1475596
3549,-2.6668007,-6.040681,-1.2191432
3550,-2.6811578,-7.1138616,0.7692925
3551,-2.7625136,-8.436195,2.6401806
3552,-3.778267,-11.935998,4.8439703
3553,-3.5697923,-12.515658,5.4379888
3554,1.2092727,-12.2019,7.1581287
3555,1.2092727,-12.2019,7.1581287
3556,4.7545385,-12.769597,-0.43579283
3557,1.9878374,-13.521841,3.679862
3558,1.9878374,-13.521841,3.679862
3559,1.9878374,-13.521841,3.679862
3560,2.8094728,-12.807882,4.7865424
3561,2.8094728,-12.807882,4.7865424
3562,4.833502,-12.626028,-0.4956134
3563,6.2087765,-12.935001,-2.917449
3564,7.111768,-15.021543,1.2077773
3565,0.552742,-16.767704,7.9223366
3566,0.552742,-16.767704,7.9223366
3567,-1.9097716,-14.980865,4.6091747
3568,-1.9097716,-14.980865,4.6091747
3569,3.0155547,-12.38166,6.3795643
3570,3.0155547,-12.38166,6.3795643
3571,3.880261,-12.084652,3.991228
3572,4.9989057,-10.096216,-2.8624141
3573,3.1926236,-10.400404,-4.3522453
3574,3.1926236,-10.400404,-4.3522453
3575,-5.759225,-24.993929,-6.489036
3576,-5.759225,-24.993929,-6.489036
3577,-5.759225,-24.993929,-6.489036
3578,-5.759225,-24.993929,-6.489036
3579,-6.2455664,-23.137398,-3.7103705
3580,-8.236095,-16.997715,0.9346963
3581,-8.236095,-16.997715,0.9346963
3582,-8.236095,-16.997715,0.9346963
3583,-8.609974,-16.688742,-0.59611195
3584,-4.822734,-9.562018,-2.9916265
3585,-4.822734,-9.562018,-2.9916265
3586,-4.822734,-9.562018,-2.9916265
3587,-4.822734,-9.562018,-2.9916265
3588,-1.6342978,-6.3664036,-1.80359
3589,3.8324046,-3.7145581,-2.349752
3590,3.8324046,-3.7145581,-2.349752
3591,3.8324046,-3.7145581,-2.349752
3592,3.8324046,-3.7145581,-2.349752
3593,2.8932216,-2.9386854,-1.6908283
3594,2.8932216,-2.9386854,-1.6908283
3595,2.82383,-2.6389842,-1.817947
3596,1.178166,-1.218545,-3.228815
3597,1.178166,-1.218545,-3.228815
3598,-1.1407782,0.7360921,-3.5521452
3599,-1.1407782,0.7360921,-3.5521452
3600,-2.8845477,4.0034914,-2.198705
3601,-2.8845477,4.0034914,-2.198705
3602,-2.8845477,4.0034914,-2.198705
3603,0.58654064,-4.6178484,4.0151563
3604,0.58654064,-4.6178484,4.0151563
3605,0.58654064,-4.6178484,4.0151563
3606,0.58654064,-4.6178484,4.0151563
3607,-2.812763,-18.918852,22.565813
3608,-2.812763,-18.918852,22.565813
3609,-9.311669,-33.60809,25.351955
3610,-9.311669,-33.60809,25.351955
3611,0.552742,-19.884356,9.50818
3612,0.552742,-19.884356,9.50818
3613,-4.834698,-5.602495,5.0620165
3614,-4.834698,-5.602495,5.0620165
3615,-15.271892,-12.664313,1.6555341
3616,-15.271892,-12.664313,1.6555341
3617,-15.271892,-12.664313,1.6555341
3618,-15.271892,-12.664313,1.6555341
3619,-7.41446,-19.386051,8.190632
3620,0.552742,-18.434904,5.272884
3621,6.5033927,-11.059327,-15.87219
3622,5.2193446,-9.983753,-13.857733
3623,-3.3086755,-7.152147,3.3493536
3624,-3.3086755,-7.152147,3.3493536
3625,0.49292147,-6.869495,-13.031312
3626,2.3327029,-6.598807,-16.327425
3627,2.0859432,-7.190432,-15.800406
3628,-0.43639103,-8.711669,-8.62822
3629,-0.6472585,-10.6663065,-1.1422737
3630,-0.6472585,-10.6663065,-1.1422737
3631,0.552742,-14.338691,2.5325036
3632,0.552742,-14.338691,2.5325036
3633,0.49052864,-14.611772,3.0786655
3634,2.2609184,-14.566308,3.6607196
3635,3.3891342,-13.797315,2.105983
3636,2.6991038,-11.447264,0.06729814
3637,-0.18484555,-6.1438713,-0.13130614
3638,-0.18484555,-6.1438713,-0.13130614
3639,-1.1312069,-5.2334023,0.3044867
3640,-2.3001008,-3.283551,2.0916262
3641,-2.1637099,-2.9048867,1.224527
3642,-2.352743,-3.4199417,-2.062314
3643,-2.352743,-3.4199417,-2.062314
3644,-4.0920258,-8.172686,-0.7471589
3645,-4.0920258,-8.172686,-0.7471589
3646,-4.0920258,-8.172686,-0.7471589
3647,-4.0920258,-8.172686,-0.7471589
3648,-1.238884,-12.082259,10.095019
3649,-1.238884,-12.082259,10.095019
3650,-1.238884,-12.082259,10.095019
3651,-1.238884,-12.082259,10.095019
3652,2.1314068,-11.775679,5.6584272
3653,5.037191,-12.906287,-2.8408787
3654,-0.1274178,-11.749357,6.2404814
3655,-0.1274178,-11.749357,6.2404814
3656,-0.1274178,-11.749357,6.2404814
3657,-0.1274178,-11.749357,6.2404814
3658,4.2131624,-11.073684,1.2412767
3659,5.703293,-11.0042925,-0.7926225
3660,8.985049,-12.970893,-3.8874395
3661,9.35145,-14.137394,-2.3186452
3662,6.637391,-15.328123,4.4392843
3663,1.9136599,-15.974783,6.908976
3664,-3.0882368,-16.861324,4.8655057
3665,-2.6330023,-16.221542,3.3059835
3666,1.6908283,-14.393725,5.0309095
3667,5.3007,-12.935001,0.58953166
3668,7.231409,-13.126726,-1.4823537
3669,6.91765,-13.0259285,-2.548356
3670,-0.16331014,-13.536198,-0.44775695
3671,-7.9486575,-17.58934,-2.1532412
3672,-7.9486575,-17.58934,-2.1532412
3673,-8.126026,-18.715462,-4.1727834
3674,-7.5774713,-21.506092,-6.48425
3675,-7.687541,-22.121645,-5.3703914
3676,-6.1040907,-19.55624,-0.663111
3677,-5.323133,-17.476877,3.545565
3678,-5.323133,-17.476877,3.545565
3679,-6.1331034,-17.39313,1.8855443
3680,-6.6816583,-16.511374,-0.8380861
3681,-6.6816583,-16.511374,-0.8380861
3682,-7.333104,-13.464413,-2.606083
3683,-1.9480567,-8.110473,-3.2359936
3684,-1.9480567,-8.110473,-3.2359936
3685,-1.9480567,-8.110473,-3.2359936
3686,4.3115673,-4.8119664,-1.178166
3687,4.3115673,-4.8119664,-1.178166
3688,4.3115673,-4.8119664,-1.178166
3689,4.3115673,-4.8119664,-1.178166
3690,4.028616,-4.395017,-0.88354975
3691,0.67028946,0.67387867,-5.423033
3692,0.67028946,0.67387867,-5.423033
3693,0.67028946,0.67387867,-5.423033
3694,0.67028946,0.67387867,-5.423033
3695,-2.216352,3.6251264,-5.1762733
3696,-2.216352,3.6251264,-5.1762733
3697,-3.152843,4.56401,-4.3115673
3698,-3.2488549,4.9642096,-3.7271204
3699,-2.6306095,4.5544386,-1.6286149
3700,-2.6306095,4.5544386,-1.6286149
3701,-0.52283174,3.2321053,-2.1891336
3702,2.728117,-1.0028918,-0.58893347
3703,2.1649063,-2.9793632,1.847259
3704,-4.170989,-14.192728,24.381666
3705,-4.170989,-14.192728,24.381666
3706,-8.4349985,-24.720848,20.800508
3707,-6.3532434,-33.69214,24.127728
3708,-3.5961134,-31.823645,21.66282
3709,-1.265205,-26.85764,15.8512535
3710,-6.9523463,-0.24107689,3.7851462
3711,-6.9523463,-0.24107689,3.7851462
3712,-6.9523463,-0.24107689,3.7851462
3713,-10.449756,-1.0363913,2.6042883
3714,-17.595322,-10.577771,-0.36370903
3715,-7.90798,-21.398415,8.161918
3716,-7.90798,-21.398415,8.161918
3717,2.9892337,-5.9377894,-9.332606
3718,2.9892337,-5.9377894,-9.332606
3719,2.9892337,-5.9377894,-9.332606
3720,2.9892337,-5.9377894,-9.332606
3721,2.6249263,-7.815856,-15.970595
3722,2.6249263,-7.815856,-15.970595
3723,2.6249263,-7.815856,-15.970595
3724,2.6249263,-7.815856,-15.970595
3725,0.8572287,-9.518948,-12.729517
3726,-1.4018949,-11.413764,-3.952345
3727,-1.5239289,-11.938391,-0.79501534
3728,-0.0029910284,-12.949358,2.1705892
3729,1.7051853,-12.949358,2.4340987
3730,2.0979073,-12.693027,1.6722839
3731,2.0979073,-12.693027,1.6722839
3732,3.6885362,-9.983753,-0.8045866
3733,3.6885362,-9.983753,-0.8045866
3734,2.1337996,-9.387342,-0.018843478
3735,-1.5669997,-6.8431735,1.0040882
3736,-1.5669997,-6.8431735,1.0040882
3737,-3.6104703,-5.4777694,2.3216362
3738,-4.8155556,-4.4572306,1.1069796
3739,-5.2369914,-4.543671,0.58953166
3740,-4.470391,-4.7303114,-0.86201435
3741,-4.10399,-5.18076,-1.3986049
3742,-2.6907291,-7.0348988,-0.8213364
3743,-2.6907291,-7.0348988,-0.8213364
3744,-2.6907291,-7.0348988,-0.8213364
3745,-2.6907291,-7.0348988,-0.8213364
3746,-3.5650067,-10.522737,2.9276185
3747,-2.7912276,-14.556737,6.4441705
3748,-2.7912276,-14.556737,6.4441705
3749,3.0969107,-12.166008,7.5723863
3750,3.0969107,-12.166008,7.5723863
3751,4.5340996,-11.9407835,2.4245276
3752,3.6454654,-13.450056,-3.746263
3753,2.3901308,-13.047463,2.9084759
3754,2.3901308,-13.047463,2.9084759
3755,8.522636,-12.419946,4.6908298
3756,8.522636,-12.419946,4.6908298
3757,10.395917,-13.002,2.1299112
3758,8.110771,-13.993825,-1.4799608
3759,8.110771,-13.993825,-1.4799608
3760,1.8942182,-16.902002,5.12423
3761,-1.713261,-17.72603,6.503991
3762,-1.5984055,-17.507984,6.750751
3763,-0.9275179,-16.408482,7.646863
3764,1.8463618,-14.003396,3.138486
3765,3.336492,-11.957533,-2.4047868
3766,3.336492,-11.957533,-2.4047868
3767,-0.8700901,-11.365908,-2.0021944
3768,-4.92084,-13.064214,-1.5664015
3769,-8.353643,-22.162323,-3.463611
3770,-8.353643,-22.162323,-3.463611
3771,-8.353643,-22.162323,-3.463611
3772,-8.353643,-22.162323,-3.463611
3773,-4.681258,-17.297117,3.219842
3774,-4.681258,-17.297117,3.219842
3775,-5.3039904,-16.2694,1.2317054
3776,-5.3039904,-16.2694,1.2317054
3777,-6.3460646,-14.266906,-1.3268201
3778,-6.3460646,-14.266906,-1.3268201
3779,0.7109674,-6.991828,-1.1566306
3780,0.7109674,-6.991828,-1.1566306
3781,0.7109674,-6.991828,-1.1566306
3782,0.7109674,-6.991828,-1.1566306
3783,1.5086746,-6.385546,-0.5195416
3784,2.7879374,-5.5423756,-0.87637126
3785,2.8692935,-5.401199,-0.90029955
3786,3.1375887,-4.596313,-1.2574283
3787,3.1567314,-4.019045,-2.0958135
3788,2.605784,-2.792424,-3.0801609
3789,2.239383,-1.9277177,-3.5904303
3790,0.8210373,-0.49262238,-4.4192443
3791,0.31106696,0.6858428,-4.42403
3792,-0.96819586,2.298007,-4.4458647
3793,-3.4043884,3.7881374,-3.1283164
3794,-3.4043884,3.7881374,-3.1283164
3795,-3.4043884,3.7881374,-3.1283164
3796,-3.0140593,4.2406797,-2.5606194
3797,-2.9709885,4.4228334,-1.1279168
3798,0.58893347,2.149353,-0.622433
3799,1.4584254,0.71455663,-0.5267201
3800,-2.283351,-14.43231,19.554745
3801,-2.283351,-14.43231,19.554745
3802,-2.283351,-14.43231,19.554745
3803,-3.5339,-23.091934,14.641682
3804,-3.5339,-23.091934,14.641682
3805,-3.5339,-23.091934,14.641682
3806,-3.5339,-23.091934,14.641682
3807,-7.0504518,-0.52163535,3.0906296
3808,-7.0504518,-0.52163535,3.0906296
3809,-7.0504518,-0.52163535,3.0906296
3810,-7.0504518,-0.52163535,3.0906296
3811,-12.133704,-9.780065,-5.7631135
3812,-12.133704,-9.780065,-5.7631135
3813,-1.5215361,-24.054747,9.119945
