,ax,ay,az
501,3.2213376,-2.2510478,-4.788337
502,-1.5311074,4.595416,-3.065804
503,-1.5311074,4.595416,-3.065804
504,-1.5311074,4.595416,-3.065804
505,-1.5311074,4.595416,-3.065804
506,-1.5311074,4.595416,-3.065804
507,-1.7300107,5.503193,-3.1737802
508,-0.40528435,-2.1119652,7.6803627
509,-0.40528435,-2.1119652,7.6803627
510,-0.40528435,-2.1119652,7.6803627
511,-5.272884,-14.628521,21.717857
512,-5.272884,-14.628521,21.717857
513,-10.452148,-23.618954,16.119549
514,-10.452148,-23.618954,16.119549
515,-6.506683,-22.902603,10.86162
516,-6.506683,-22.902603,10.86162
517,-6.643074,-14.242978,21.052053
518,1.5541383,-7.1856465,9.069695
519,0.7085746,11.22832,-22.939093
520,0.7085746,11.22832,-22.939093
521,1.7410775,-28.24458,15.144773
522,1.7410775,-28.24458,15.144773
523,1.7410775,-28.24458,15.144773
524,1.7410775,-28.24458,15.144773
525,0.14566308,-20.018354,-18.564714
526,0.14566308,-20.018354,-18.564714
527,-5.201099,-14.961721,12.071192
528,1.2690933,-7.583453,-11.260922
529,1.2690933,-7.583453,-11.260922
530,1.2690933,-7.583453,-11.260922
531,-0.10348958,-6.0311093,-5.9931235
532,-0.10348958,-6.0311093,-5.9931235
533,-1.11685,-12.386446,-0.04995017
534,-1.11685,-12.386446,-0.04995017
535,-1.11685,-12.386446,-0.04995017
536,-1.11685,-12.386446,-0.04995017
537,-1.11685,-12.386446,-0.04995017
538,-0.06520442,-13.519448,3.0233314
539,-0.06520442,-13.519448,3.0233314
540,2.7209384,-9.046964,-0.9170493
541,2.7209384,-9.046964,-0.9170493
542,2.7209384,-9.046964,-0.9170493
543,2.7209384,-9.046964,-0.9170493
544,1.0725827,-6.1941204,0.46749774
545,1.0725827,-6.1941204,0.46749774
546,0.13609178,-5.144868,1.8975084
547,0.13609178,-5.144868,1.8975084
548,-1.1001002,-5.2022953,-0.75912297
549,-1.1001002,-5.2022953,-0.75912297
550,-4.4871407,-5.834599,0.3909274
551,-4.4871407,-5.834599,0.3909274
552,-6.4444695,-7.502097,2.5468607
553,-6.4444695,-7.502097,2.5468607
554,-8.140383,-13.332509,4.606782
555,-5.732904,-15.378372,8.856435
556,8.755039,-12.087045,-2.6826532
557,8.755039,-12.087045,-2.6826532
558,8.755039,-12.087045,-2.6826532
559,8.755039,-12.087045,-2.6826532
560,5.494818,-12.055938,1.5598212
561,-0.4746762,-15.586846,-1.9854445
562,-0.4746762,-15.586846,-1.9854445
563,-0.4746762,-15.586846,-1.9854445
564,-0.4746762,-15.586846,-1.9854445
565,1.8918254,-16.92593,5.232206
566,1.8918254,-16.92593,5.232206
567,1.8918254,-16.92593,5.232206
568,0.035593238,-16.173687,4.7626143
569,0.035593238,-16.173687,4.7626143
570,3.7965121,-16.283756,2.4197419
571,1.5469599,-12.961322,-1.7964116
572,1.5469599,-12.961322,-1.7964116
573,1.5469599,-12.961322,-1.7964116
574,1.5469599,-12.961322,-1.7964116
575,-5.4670014,-16.784454,-3.894917
576,-5.4670014,-16.784454,-3.894917
577,-5.4670014,-16.784454,-3.894917
578,-10.315458,-21.443878,1.902294
579,-10.315458,-21.443878,1.902294
580,-10.315458,-21.443878,1.902294
581,-10.315458,-21.443878,1.902294
582,-10.315458,-21.443878,1.902294
583,-4.6094737,-8.761918,-3.295814
584,-4.6094737,-8.761918,-3.295814
585,-4.6094737,-8.761918,-3.295814
586,-4.6094737,-8.761918,-3.295814
587,-2.7290142,-6.0550375,-1.0393823
588,-2.7290142,-6.0550375,-1.0393823
589,-2.7290142,-6.0550375,-1.0393823
590,1.7123637,-5.662316,-2.673082
591,1.7123637,-5.662316,-2.673082
592,1.7554345,-2.5265217,-4.4745784
593,1.7554345,-2.5265217,-4.4745784
594,1.7554345,-2.5265217,-4.4745784
595,1.7554345,-2.5265217,-4.4745784
596,1.6669,-2.1095722,-4.5726843
597,-2.800799,3.114857,-3.964309
598,-2.800799,3.114857,-3.964309
599,-2.800799,3.114857,-3.964309
600,0.8138588,2.7388847,0.23748764
601,0.8138588,2.7388847,0.23748764
602,0.8138588,2.7388847,0.23748764
603,0.8138588,2.7388847,0.23748764
604,-4.3579283,-13.327723,19.837397
605,-4.3579283,-13.327723,19.837397
606,-4.3579283,-13.327723,19.837397
607,-4.3579283,-13.327723,19.837397
608,-6.365207,-17.318651,16.007086
609,-6.365207,-17.318651,16.007086
610,-6.365207,-17.318651,16.007086
611,-6.365207,-17.318651,16.007086
612,-6.5258255,-11.811571,24.511177
613,-0.58983076,-7.952247,-1.6477575
614,-13.079767,4.523332,-13.31875
615,-13.079767,4.523332,-13.31875
616,5.79422,-14.161622,-17.743078
617,5.79422,-14.161622,-17.743078
618,5.79422,-14.161622,-17.743078
619,5.79422,-14.161622,-17.743078
620,5.79422,-14.161622,-17.743078
621,-7.893623,-12.268899,-6.843772
622,-7.893623,-12.268899,-6.843772
623,-7.893623,-12.268899,-6.843772
624,-7.893623,-12.268899,-6.843772
625,0.40677986,-11.493027,-3.621537
626,0.40677986,-11.493027,-3.621537
627,0.26291138,-12.498909,-2.8094728
628,2.0404794,-13.943576,-0.11216356
629,2.140978,-14.226228,2.664109
630,0.9529416,-12.043974,1.2747762
631,0.9529416,-12.043974,1.2747762
632,0.9529416,-12.043974,1.2747762
633,0.9529416,-12.043974,1.2747762
634,0.06669993,-6.335297,-1.5687944
635,0.06669993,-6.335297,-1.5687944
636,0.06669993,-6.335297,-1.5687944
637,0.06669993,-6.335297,-1.5687944
638,-1.1431711,-5.061119,-0.03798606
639,-1.8113668,-4.9842496,0.8003992
640,-1.8113668,-4.9842496,0.8003992
641,-2.02702,-5.171189,0.7429714
642,-1.1120644,-6.0550375,-0.29910284
643,-5.6300125,-9.878469,-0.8356933
644,-5.6300125,-9.878469,-0.8356933
645,-5.6300125,-9.878469,-0.8356933
646,-5.6300125,-9.878469,-0.8356933
647,-8.2145605,-12.992429,11.965908
648,-8.2145605,-12.992429,11.965908
649,-1.2460624,-12.489338,4.599603
650,-1.2460624,-12.489338,4.599603
651,1.87029,-12.774383,1.2221341
652,5.877969,-14.475381,-1.5711871
653,5.2025948,-14.245371,7.318448
654,5.2025948,-14.245371,7.318448
655,3.7459638,-12.75524,6.4106708
656,2.6009982,-12.314662,1.4976078
657,2.3231318,-12.441482,-0.74476606
658,2.1337996,-13.282259,-1.7147565
659,2.0572293,-15.246767,1.6818552
660,-1.6582261,-15.258731,6.2380886
661,-1.6582261,-15.258731,6.2380886
662,-1.198206,-16.590635,1.3537394
663,1.9974087,-16.506588,1.6698911
664,3.255136,-15.18904,2.7622147
665,3.2165518,-14.290834,3.871587
666,-1.864308,-14.367405,-5.1092744
667,-1.864308,-14.367405,-5.1092744
668,-1.864308,-14.367405,-5.1092744
669,-1.864308,-14.367405,-5.1092744
670,-6.6912293,-18.082859,-2.2178476
671,-12.914662,-22.128824,-1.5376877
672,-12.914662,-22.128824,-1.5376877
673,-12.914662,-22.128824,-1.5376877
674,-9.836296,-19.910677,1.1620145
675,-6.5521464,-16.902002,0.39571303
676,-5.905486,-14.817853,-0.26799613
677,-5.905486,-14.817853,-0.26799613
678,-3.6056845,-9.092726,-1.9136599
679,-3.6056845,-9.092726,-1.9136599
680,-3.6056845,-9.092726,-1.9136599
681,-1.91695,-7.813463,-0.8452646
682,2.754438,-6.0837517,-1.6190436
683,2.754438,-6.0837517,-1.6190436
684,2.754438,-6.0837517,-1.6190436
685,5.0132627,-5.7317076,-2.754438
686,2.2824538,-2.1936202,-4.2254257
687,2.2824538,-2.1936202,-4.2254257
688,2.2824538,-2.1936202,-4.2254257
689,2.2824538,-2.1936202,-4.2254257
690,2.00698,-1.6689938,-4.2038903
691,-1.9935204,2.5615165,-3.952345
692,-1.9935204,2.5615165,-3.952345
693,-1.9935204,2.5615165,-3.952345
694,-1.0016954,2.597409,-1.151845
695,-1.0016954,2.597409,-1.151845
696,-1.0016954,2.597409,-1.151845
697,-1.0016954,2.597409,-1.151845
698,-1.0016954,2.597409,-1.151845
699,-10.797014,-18.708284,18.702003
700,-10.797014,-18.708284,18.702003
701,-10.797014,-18.708284,18.702003
702,-10.797014,-18.708284,18.702003
703,-10.797014,-18.708284,18.702003
704,2.1218355,-8.757133,10.133305
705,2.1218355,-8.757133,10.133305
706,2.1218355,-8.757133,10.133305
707,2.1218355,-8.757133,10.133305
708,2.9673991,-5.259723,-12.27189
709,-4.3411784,-0.45194438,-22.529322
710,-25.414469,-7.8110704,4.1347976
711,-2.4535406,-10.26162,-12.650255
712,-2.4535406,-10.26162,-12.650255
713,-2.4535406,-10.26162,-12.650255
714,-2.4535406,-10.26162,-12.650255
715,-6.8539414,-8.474481,2.0916262
716,-10.130912,-10.409975,2.2713869
717,-6.422934,-10.501202,-10.870593
718,0.56500524,-14.606986,-1.5855441
719,0.56500524,-14.606986,-1.5855441
720,0.56500524,-14.606986,-1.5855441
721,0.56500524,-14.606986,-1.5855441
722,0.56500524,-14.606986,-1.5855441
723,1.8463618,-15.086148,1.0280164
724,1.8463618,-15.086148,1.0280164
725,2.6321049,-12.453445,1.4183456
726,2.6321049,-12.453445,1.4183456
727,2.7424738,-11.782857,0.8985049
728,2.1891336,-9.725029,0.6134599
729,-1.1958131,-4.833502,0.90089774
730,-1.1958131,-4.833502,0.90089774
731,-1.1958131,-4.833502,0.90089774
732,-1.1958131,-4.833502,0.90089774
733,-1.1958131,-4.833502,0.90089774
734,-1.1958131,-4.833502,0.90089774
735,-1.8810577,-4.785346,0.517747
736,-3.1986058,-7.164111,0.49860442
737,-3.1986058,-7.164111,0.49860442
738,-3.1986058,-7.164111,0.49860442
739,-3.1986058,-7.164111,0.49860442
740,-3.1986058,-7.164111,0.49860442
741,-6.856334,-13.531412,3.818646
742,-6.856334,-13.531412,3.818646
743,3.674179,-13.306188,0.93708915
744,3.674179,-13.306188,0.93708915
745,3.674179,-13.306188,0.93708915
746,6.7091756,-11.830713,-0.8285148
747,1.326521,-13.301402,3.4043884
748,1.326521,-13.301402,3.4043884
749,1.326521,-13.301402,3.4043884
750,1.326521,-13.301402,3.4043884
751,2.0979073,-14.058432,-1.1015958
752,2.0979073,-14.058432,-1.1015958
753,2.0979073,-14.058432,-1.1015958
754,-1.1096715,-15.936498,3.2294133
755,-1.1096715,-15.936498,3.2294133
756,-1.1096715,-15.936498,3.2294133
757,-1.1096715,-15.936498,3.2294133
758,1.3193426,-15.217753,2.879762
759,2.0931215,-15.239589,3.4953158
760,1.5732809,-13.445271,-3.0203404
761,1.5732809,-13.445271,-3.0203404
762,1.5732809,-13.445271,-3.0203404
763,-10.303494,-20.940788,-2.1675982
764,-10.303494,-20.940788,-2.1675982
765,-10.303494,-20.940788,-2.1675982
766,-10.303494,-20.940788,-2.1675982
767,-10.303494,-20.940788,-2.1675982
768,-11.594721,-20.281864,1.1165509
769,-11.594721,-20.281864,1.1165509
770,-9.539287,-18.174086,1.2005987
771,-6.8467627,-15.038292,-0.23688944
772,-6.3101726,-9.897612,-1.9806589
773,-6.3101726,-9.897612,-1.9806589
774,-6.3101726,-9.897612,-1.9806589
775,-0.90119684,-6.253941,-0.9457632
776,-0.90119684,-6.253941,-0.9457632
777,-0.90119684,-6.253941,-0.9457632
778,-0.90119684,-6.253941,-0.9457632
779,-0.6831509,-6.2491555,-0.96759766
780,3.0681968,-5.384449,-1.4464613
781,3.0681968,-5.384449,-1.4464613
782,3.0681968,-5.384449,-1.4464613
783,-1.049851,0.04875376,-4.0959144
784,-1.049851,0.04875376,-4.0959144
785,-1.049851,0.04875376,-4.0959144
786,-1.049851,0.04875376,-4.0959144
787,-1.049851,0.04875376,-4.0959144
788,-3.3900316,2.9063823,-3.0011978
789,-3.2679975,3.2297122,-2.4789643
790,0.45942193,2.844169,1.1907284
791,0.45942193,2.844169,1.1907284
792,0.45942193,2.844169,1.1907284
793,-4.56401,-14.4897375,17.887547
794,-4.56401,-14.4897375,17.887547
795,-4.56401,-14.4897375,17.887547
796,-4.56401,-14.4897375,17.887547
797,-8.094919,-21.271296,17.971294
798,-8.094919,-21.271296,17.971294
799,-7.704291,-12.484552,18.0697
800,-7.704291,-12.484552,18.0697
801,-7.704291,-12.484552,18.0697
802,-15.484853,-5.8130636,-0.49800622
803,-15.484853,-5.8130636,-0.49800622
804,-15.484853,-5.8130636,-0.49800622
805,-15.484853,-5.8130636,-0.49800622
806,-15.484853,-5.8130636,-0.49800622
807,-6.264709,-5.7819567,3.2341988
808,-6.264709,-5.7819567,3.2341988
809,-6.264709,-5.7819567,3.2341988
810,-6.264709,-5.7819567,3.2341988
811,-6.264709,-5.7819567,3.2341988
812,-6.264709,-5.7819567,3.2341988
813,-3.1962128,-8.548957,-12.367603
814,-2.0988045,-9.710672,-5.6793647
815,-1.3301103,-13.680066,-3.9786658
816,0.77796644,-16.949858,-3.3870404
817,2.998805,-17.17269,2.78375
818,2.998805,-17.17269,2.78375
819,4.4144588,-14.973686,3.6990047
820,4.4144588,-14.973686,3.6990047
821,4.4144588,-14.973686,3.6990047
822,-0.56350976,-7.231409,-0.37328035
823,-0.56350976,-7.231409,-0.37328035
824,-0.56350976,-7.231409,-0.37328035
825,-3.2560334,-5.8154564,0.8602197
826,-3.2560334,-5.8154564,0.8602197
827,-3.3086755,-5.4107704,0.6879365
828,-3.3086755,-5.4107704,0.6879365
829,-3.3086755,-5.4107704,0.6879365
830,-2.038984,-6.6275206,-0.35653058
831,-2.038984,-6.6275206,-0.35653058
832,-2.038984,-6.6275206,-0.35653058
833,-2.038984,-6.6275206,-0.35653058
834,-4.8993044,-10.290334,2.02702
835,-4.8993044,-10.290334,2.02702
836,-4.8993044,-10.290334,2.02702
837,-4.8993044,-10.290334,2.02702
838,-4.8993044,-10.290334,2.02702
839,-5.910272,-12.884751,2.2929223
840,-0.7190432,-11.974282,3.897908
841,-0.7190432,-11.974282,3.897908
842,4.9989057,-11.825928,1.5813566
843,6.9535427,-12.01496,2.6330023
844,6.632605,-12.906287,5.026124
845,6.632605,-12.906287,5.026124
846,2.455036,-13.8499565,3.7971103
847,2.455036,-13.8499565,3.7971103
848,1.3770695,-14.566308,1.2604194
849,1.3770695,-14.566308,1.2604194
850,2.0644078,-16.336697,4.599603
851,2.0644078,-16.336697,4.599603
852,3.6789649,-16.748562,3.2341988
853,3.6789649,-16.748562,3.2341988
854,3.6789649,-16.748562,3.2341988
855,3.6789649,-16.748562,3.2341988
856,-0.762114,-13.979468,1.724926
857,-1.6319051,-13.354343,-1.1159526
858,-1.6319051,-13.354343,-1.1159526
859,-3.2416766,-12.305091,-5.2603216
860,-5.675476,-14.42244,-3.3412778
861,-10.521541,-19.922642,-2.5725834
862,-10.521541,-19.922642,-2.5725834
863,-11.707184,-21.134905,-1.0130613
864,-11.707184,-21.134905,-1.0130613
865,-9.826724,-19.347765,1.7491534
866,-5.9007006,-15.584454,0.232702
867,-5.9007006,-15.584454,0.232702
868,-4.343571,-11.037792,-2.8695927
869,-4.343571,-11.037792,-2.8695927
870,-4.343571,-11.037792,-2.8695927
871,-4.343571,-11.037792,-2.8695927
872,-0.5419743,-7.5667033,-0.014057833
873,0.81625164,-6.385546,-0.92183495
874,0.81625164,-6.385546,-0.92183495
875,0.81625164,-6.385546,-0.92183495
876,2.225026,-4.8765726,-2.62044
877,2.225026,-4.8765726,-2.62044
878,2.225026,-4.8765726,-2.62044
879,2.225026,-4.8765726,-2.62044
880,-1.68694,-0.028115666,-4.2948174
881,-1.68694,-0.028115666,-4.2948174
882,-1.68694,-0.028115666,-4.2948174
883,-1.68694,-0.028115666,-4.2948174
884,-4.41057,3.141178,-3.0586255
885,-4.41057,3.141178,-3.0586255
886,-2.9156544,3.5437703,-1.4994025
887,-0.31435707,2.245365,0.6999006
888,-0.31435707,2.245365,0.6999006
889,2.0404794,-3.2189445,8.739186
890,2.0404794,-3.2189445,8.739186
891,-7.467401,-19.783857,18.98944
892,-7.467401,-19.783857,18.98944
893,-7.467401,-19.783857,18.98944
894,-7.467401,-19.783857,18.98944
895,-7.467401,-19.783857,18.98944
896,-6.9738817,-11.950355,14.828321
897,-6.9738817,-11.950355,14.828321
898,-6.9738817,-11.950355,14.828321
899,-6.0227346,-11.167005,5.7951174
900,-12.8213415,-4.8693943,-1.463211
901,-12.8213415,-4.8693943,-1.463211
902,-8.59801,-6.285048,6.6741805
903,-5.6443696,-7.339086,-1.506581
904,-5.6443696,-7.339086,-1.506581
905,-5.6443696,-7.339086,-1.506581
906,-5.6443696,-7.339086,-1.506581
907,-5.7257257,-9.281759,-9.5048895
908,-5.7257257,-9.281759,-9.5048895
909,-2.3814569,-12.230614,-2.8671997
910,-2.3814569,-12.230614,-2.8671997
911,0.16241284,-16.422838,-4.833801
912,0.16241284,-16.422838,-4.833801
913,1.8535402,-17.424236,-3.2718859
914,4.134199,-17.34258,2.4149563
915,2.5172493,-15.002399,3.0858438
916,2.5172493,-15.002399,3.0858438
917,-0.82941216,-7.856534,0.07208378
918,-0.82941216,-7.856534,0.07208378
919,-0.82941216,-7.856534,0.07208378
920,-0.82941216,-7.856534,0.07208378
921,-2.3288147,-6.201299,0.38584265
922,-2.3288147,-6.201299,0.38584265
923,-2.3288147,-6.201299,0.38584265
924,-2.3288147,-6.201299,0.38584265
925,-1.8424734,-5.8010993,0.87218386
926,-1.5358931,-5.8393846,1.0351949
927,-1.2149557,-5.98086,0.5416752
928,0.1480559,-6.72114,-2.7592237
929,0.1480559,-6.72114,-2.7592237
930,-3.641577,-8.666205,0.07686943
931,-3.641577,-8.666205,0.07686943
932,-3.641577,-8.666205,0.07686943
933,-4.82752,-14.482559,9.943973
934,-4.82752,-14.482559,9.943973
935,-4.82752,-14.482559,9.943973
936,-4.82752,-14.482559,9.943973
937,8.527422,-11.854642,0.8673982
938,8.527422,-11.854642,0.8673982
939,8.527422,-11.854642,0.8673982
940,8.527422,-11.854642,0.8673982
941,1.4033905,-14.264513,0.7286145
942,1.4033905,-14.264513,0.7286145
943,1.4033905,-14.264513,0.7286145
944,1.4033905,-14.264513,0.7286145
945,-1.1001002,-16.99293,4.4464626
946,-1.1001002,-16.99293,4.4464626
947,-1.1001002,-16.99293,4.4464626
948,-0.46031925,-17.543877,6.4824557
949,2.9362924,-18.073288,3.0592237
950,2.9362924,-18.073288,3.0592237
951,3.135196,-16.451553,2.077269
952,2.018944,-13.9986105,0.6759724
953,-1.0977074,-12.834502,-2.0141585
954,-1.0977074,-12.834502,-2.0141585
955,-9.862617,-19.740488,-2.8166513
956,-9.862617,-19.740488,-2.8166513
957,-9.862617,-19.740488,-2.8166513
958,-9.862617,-19.740488,-2.8166513
959,-10.543076,-20.188543,-1.1327025
960,-10.346565,-19.69263,0.4651049
961,-9.486645,-18.739391,1.6627127
962,-6.084948,-13.866706,-0.68255264
963,-6.084948,-13.866706,-0.68255264
964,-6.084948,-13.866706,-0.68255264
965,-6.9595246,-10.685748,-3.3556347
966,-6.9595246,-10.685748,-3.3556347
967,-1.4617156,-7.1976104,-0.87158567
968,-1.4617156,-7.1976104,-0.87158567
969,1.218844,-6.416952,-0.6559325
970,1.218844,-6.416952,-0.6559325
971,4.6971107,-6.277869,-2.0407786
972,4.6971107,-6.277869,-2.0407786
973,4.833502,-6.280262,-1.9806589
974,0.6942177,-0.01375873,-4.505685
975,0.6942177,-0.01375873,-4.505685
976,0.6942177,-0.01375873,-4.505685
977,0.6942177,-0.01375873,-4.505685
978,-1.0112667,1.4835501,-4.409673
979,-1.0112667,1.4835501,-4.409673
980,-3.7280176,3.1387851,-3.2144582
981,-4.345964,3.6849468,-2.3712873
982,-1.1479566,1.8714864,0.26141587
983,-1.1479566,1.8714864,0.26141587
984,-1.1479566,1.8714864,0.26141587
985,-1.1479566,1.8714864,0.26141587
986,-0.6233303,-2.6246274,6.276374
987,0.663111,-6.55095,13.535002
988,-3.124129,-15.138791,22.302303
989,-2.9084759,-19.072292,12.3658085
990,-2.9084759,-19.072292,12.3658085
991,-2.9084759,-19.072292,12.3658085
992,-2.9084759,-19.072292,12.3658085
993,-5.0141597,-12.9685,17.317455
994,-0.9610174,-10.27837,16.445272
995,-13.707583,0.71455663,-11.0811615
996,-13.707583,0.71455663,-11.0811615
997,-13.707583,0.71455663,-11.0811615
998,-17.530716,-5.9090757,11.438889
999,-13.328919,-8.896215,19.60978
1000,-5.0309095,-14.673985,5.1553364
1001,-5.2274203,-10.575378,-8.95155
1002,-5.2274203,-10.575378,-8.95155
1003,0.7396813,-10.1033945,-9.763614
1004,0.7396813,-10.1033945,-9.763614
1005,0.7396813,-10.1033945,-9.763614
1006,0.7396813,-10.1033945,-9.763614
1007,1.5517455,-10.826924,-8.623434
1008,1.1279168,-13.088441,-5.2794642
1009,1.3576277,-15.442978,0.6831509
1010,1.3576277,-15.442978,0.6831509
1011,2.1457636,-13.485949,3.2102706
1012,2.1457636,-13.485949,3.2102706
1013,2.1457636,-13.485949,3.2102706
1014,0.948156,-10.752747,1.1093724
1015,0.6798607,-8.956036,0.21355942
1016,-2.8773692,-4.7952166,2.3048863
1017,-2.8773692,-4.7952166,2.3048863
1018,-2.8773692,-4.7952166,2.3048863
1019,-2.8773692,-4.7952166,2.3048863
1020,-3.0212376,-4.883751,1.1620145
1021,-3.0212376,-4.883751,1.1620145
1022,-3.0212376,-4.883751,1.1620145
1023,0.1911267,-6.864709,-2.1628125
1024,0.1911267,-6.864709,-2.1628125
1025,0.1911267,-6.864709,-2.1628125
1026,0.1911267,-6.864709,-2.1628125
1027,-1.9097716,-8.062616,-0.6200402
1028,-1.9097716,-8.062616,-0.6200402
1029,-2.6620152,-8.735598,-0.018843478
1030,-4.080062,-11.456835,1.9118652
1031,1.5182459,-14.001003,3.4689946
1032,1.5182459,-14.001003,3.4689946
1033,1.5182459,-14.001003,3.4689946
1034,1.5182459,-14.001003,3.4689946
1035,3.8276188,-12.920644,2.4484558
1036,4.4024944,-12.4630165,2.012663
1037,4.4024944,-12.4630165,2.012663
1038,3.2886357,-12.7648115,2.2208385
1039,1.9471594,-12.937394,4.3552365
1040,1.0534402,-13.531412,3.1983066
1041,0.16480567,-16.19522,-0.90508515
1042,0.16480567,-16.19522,-0.90508515
1043,0.4546363,-16.957037,0.5512465
1044,-0.084346995,-17.11287,5.174479
1045,1.1853445,-17.800207,4.7458644
1046,1.1853445,-17.800207,4.7458644
1047,4.855336,-15.380765,5.7687964
1048,4.855336,-15.380765,5.7687964
1049,4.3905306,-13.962718,5.560322
1050,2.4382863,-10.917851,-2.2899313
1051,1.9232312,-10.714461,-3.6696925
1052,-0.23030917,-11.217552,-6.9562345
1053,-6.9041905,-16.851753,-2.292324
1054,-6.9041905,-16.851753,-2.292324
1055,-8.825627,-19.211075,2.024627
1056,-8.825627,-19.211075,2.024627
1057,-8.825627,-19.211075,2.024627
1058,-8.825627,-19.211075,2.024627
1059,-7.8577304,-13.114761,-3.1019955
1060,-7.8577304,-13.114761,-3.1019955
1061,-7.8577304,-13.114761,-3.1019955
1062,-7.8577304,-13.114761,-3.1019955
1063,-3.354139,-9.665209,-2.292324
1064,-3.354139,-9.665209,-2.292324
1065,-2.2905295,-8.103293,-0.8021938
1066,0.3900301,-6.201299,-0.45254257
1067,0.3900301,-6.201299,-0.45254257
1068,3.202195,-5.712565,-0.9314062
1069,3.7483566,-6.09093,-1.463211
1070,3.5976088,-5.4849477,-2.1077776
1071,3.3269207,-4.6226344,-2.507678
1072,2.835794,-3.772285,-3.2144582
1073,1.7626129,-3.1683962,-3.99063
1074,0.689432,-0.9071789,-5.0829535
1075,0.0738784,0.23539393,-5.7200427
1076,-2.2785654,1.7566309,-5.241179
1077,-3.900301,2.5328028,-3.8563328
1078,-1.579263,2.1278176,1.1907284
1079,-1.579263,2.1278176,1.1907284
1080,-1.579263,2.1278176,1.1907284
1081,-1.579263,2.1278176,1.1907284
1082,-3.4980075,-14.630914,19.667507
1083,-3.4980075,-14.630914,19.667507
1084,-3.4980075,-14.630914,19.667507
1085,-3.4980075,-14.630914,19.667507
1086,-6.2790656,-20.519053,13.096517
1087,-6.2790656,-20.519053,13.096517
1088,-6.2790656,-20.519053,13.096517
1089,-3.0116663,-6.9583282,10.073484
1090,-3.0116663,-6.9583282,10.073484
1091,-3.0116663,-6.9583282,10.073484
1092,-0.78394854,-4.4189453,5.2680984
1093,-3.1767712,0.012562319,0.95383894
1094,-13.879867,-0.65084773,-10.70519
1095,-16.92952,-2.9120653,-8.010273
1096,-15.369997,-10.1802635,10.856834
1097,0.8333005,-23.702703,-10.1446705
1098,0.8333005,-23.702703,-10.1446705
1099,1.3746766,-19.081863,-19.400707
1100,-7.508079,-9.78485,1.8879371
1101,-7.508079,-9.78485,1.8879371
1102,-7.508079,-9.78485,1.8879371
1103,1.2284154,-7.070791,-12.369996
1104,3.2527432,-6.45763,-13.002598
1105,2.986841,-6.81446,-11.210673
1106,0.16241284,-10.12493,-6.9466634
1107,0.29162526,-13.222439,0.73579293
1108,0.29162526,-13.222439,0.73579293
1109,1.0797613,-13.531412,2.094019
1110,0.4881358,-11.296515,2.3216362
1111,0.4881358,-11.296515,2.3216362
1112,0.4881358,-11.296515,2.3216362
1113,0.4881358,-11.296515,2.3216362
1114,0.5937191,-8.948857,1.9190438
1115,-0.28803602,-7.5092754,1.5741782
1116,-0.6831509,-5.695815,0.92482597
1117,-1.3851452,-5.130511,1.1356934
1118,-2.5779674,-4.301697,0.90329057
1119,-1.4449657,-4.383053,-0.1698904
1120,-1.4449657,-4.383053,-0.1698904
1121,0.46181476,-5.5926247,-3.2742786
1122,-0.5922236,-7.535597,-1.518545
1123,-0.5922236,-7.535597,-1.518545
1124,-0.5922236,-7.535597,-1.518545
1125,-1.1192428,-7.8278203,-0.7256235
1126,-2.894119,-9.926326,1.7057835
1127,-3.493222,-11.09522,2.6186452
1128,-4.8825545,-15.198611,5.2848477
1129,-4.8825545,-15.198611,5.2848477
1130,2.0739791,-10.850852,-0.009272188
1131,2.0739791,-10.850852,-0.009272188
1132,2.0739791,-10.850852,-0.009272188
1133,2.0739791,-10.850852,-0.009272188
1134,2.0739791,-10.850852,-0.009272188
1135,1.9136599,-11.653345,1.1934203
1136,1.9734805,-12.958929,4.4201417
1137,2.335096,-16.61935,1.3441681
1138,2.335096,-16.61935,1.3441681
1139,2.335096,-16.61935,1.3441681
1140,2.335096,-16.61935,1.3441681
1141,1.2020943,-16.97618,2.9659038
1142,-1.7156538,-17.043179,6.432206
1143,-1.8424734,-17.208582,5.972186
1144,0.5599205,-16.41566,3.4713874
1145,2.91715,-14.590236,4.836792
1146,2.91715,-14.590236,4.836792
1147,2.3015962,-13.224832,4.371986
1148,0.4977071,-10.966007,-2.0264218
1149,-0.37417763,-10.810175,-2.4765713
1150,-2.9590242,-12.477374,-5.6386867
1151,-4.3722854,-13.634603,-4.536792
1152,-8.708079,-17.390736,-2.2298117
1153,-12.2533455,-20.653349,-1.3818551
1154,-12.2533455,-20.653349,-1.3818551
1155,-6.3221364,-16.05883,0.9176475
1156,-6.3221364,-16.05883,0.9176475
1157,-6.3221364,-16.05883,0.9176475
1158,-5.541179,-14.693426,0.558425
1159,-7.4216385,-12.623635,-2.0838494
1160,-7.4216385,-12.623635,-2.0838494
1161,1.3193426,-6.675676,-1.166202
1162,1.3193426,-6.675676,-1.166202
1163,1.3193426,-6.675676,-1.166202
1164,1.3193426,-6.675676,-1.166202
1165,4.800002,-6.55095,-1.2191432
1166,4.800002,-6.55095,-1.2191432
1167,4.9462633,-6.6203423,-1.2789637
1168,4.5245285,-6.1196437,-1.8083757
1169,4.2921257,-5.276473,-1.6908283
1170,3.5066817,-4.174578,-2.2130618
1171,1.9328024,-3.2859437,-3.1307094
1172,-0.7573284,-0.20279172,-5.085346
1173,-0.7573284,-0.20279172,-5.085346
1174,-3.6990047,2.0225334,-4.4458647
1175,-4.139882,4.458726,-3.1929228
1176,-4.139882,4.458726,-3.1929228
1177,-2.0030916,4.935496,-2.292324
1178,-2.0030916,4.935496,-2.292324
1179,-0.04127619,0.52283174,3.8665023
1180,-0.04127619,0.52283174,3.8665023
1181,2.1625135,-8.563314,18.251554
1182,1.4081762,-10.390832,20.369202
1183,-3.6511483,-20.844776,13.180265
1184,-3.6511483,-20.844776,13.180265
1185,-3.6511483,-20.844776,13.180265
1186,-3.6511483,-20.844776,13.180265
1187,-5.0862436,-16.396519,14.761323
1188,-5.95095,-9.9598255,13.999508
1189,0.4235296,-5.5184474,3.164807
1190,1.0342976,-0.46151567,-8.860622
1191,-26.255247,-1.5346966,2.417349
1192,-26.255247,-1.5346966,2.417349
1193,-26.255247,-1.5346966,2.417349
1194,-7.440781,-19.97289,30.336803
1195,2.0620148,-29.801708,-5.7009
1196,3.2886357,-22.859531,-27.713373
1197,1.9160527,-14.408082,-14.784653
1198,-6.099305,-9.758529,13.733605
1199,-8.126026,-10.283155,5.3015976
1200,-2.6548367,-8.191829,-9.88834
1201,1.2451651,-6.4935226,-10.379466
1202,-0.12263216,-7.3175507,-6.951449
1203,-1.9671993,-10.204192,-2.5220351
1204,-1.9671993,-10.204192,-2.5220351
1205,-0.73100734,-12.539587,2.7502506
1206,-0.73100734,-12.539587,2.7502506
1207,-0.73100734,-12.539587,2.7502506
1208,0.49052864,-10.752747,1.3633107
1209,0.49052864,-10.752747,1.3633107
1210,0.49052864,-10.752747,1.3633107
1211,0.9936196,-9.339187,1.1045867
1212,0.9936196,-9.339187,1.1045867
1213,1.285843,-8.2253275,0.5057829
1214,0.8138588,-7.0301127,-0.15314065
1215,0.8979067,-6.361618,0.18245272
1216,1.0055838,-5.590232,0.47946185
1217,1.0055838,-5.590232,0.47946185
1218,1.0055838,-5.590232,0.47946185
1219,-0.31914273,-6.1582284,-2.4335005
1220,-0.31914273,-6.1582284,-2.4335005
1221,-2.5301108,-7.152147,-0.07627122
1222,-6.005985,-10.781461,3.557529
1223,-6.005985,-10.781461,3.557529
1224,-6.005985,-10.781461,3.557529
1225,-6.005985,-10.781461,3.557529
1226,-6.6215386,-12.966107,6.056234
1227,-5.787939,-13.473985,5.919544
1228,1.4057833,-13.330116,0.31405798
1229,1.4057833,-13.330116,0.31405798
1230,5.662615,-12.27847,1.4617156
1231,5.662615,-12.27847,1.4617156
1232,3.7124643,-11.778071,3.3323047
1233,3.7124643,-11.778071,3.3323047
1234,1.5900307,-12.491731,3.8593237
1235,1.2308081,-14.736497,-2.2971098
1236,1.2308081,-14.736497,-2.2971098
1237,1.2308081,-14.736497,-2.2971098
1238,1.2308081,-14.736497,-2.2971098
1239,3.7196429,-17.071892,5.596214
1240,3.7196429,-17.071892,5.596214
1241,3.7196429,-17.071892,5.596214
1242,3.7196429,-17.071892,5.596214
1243,3.7196429,-17.071892,5.596214
1244,2.943471,-12.343375,-0.7639086
1245,-5.3832526,-16.384554,-0.17228323
1246,-5.3832526,-16.384554,-0.17228323
1247,-5.3832526,-16.384554,-0.17228323
1248,-5.3832526,-16.384554,-0.17228323
1249,-12.492927,-22.617558,-3.4707892
1250,-12.492927,-22.617558,-3.4707892
1251,-12.492927,-22.617558,-3.4707892
1252,-12.492927,-22.617558,-3.4707892
1253,-8.0614195,-13.47877,-1.6860427
1254,-8.0614195,-13.47877,-1.6860427
1255,-8.0614195,-13.47877,-1.6860427
1256,-8.0614195,-13.47877,-1.6860427
1257,-8.0614195,-13.47877,-1.6860427
1258,-5.026124,-10.2927265,-2.3832514
1259,-5.0790653,-9.926326,-2.1101704
1260,-4.525725,-8.292626,-1.6334006
1261,-1.7204394,-6.0861444,-0.6873383
1262,3.4680972,-5.408377,-3.013162
1263,3.4680972,-5.408377,-3.013162
1264,3.4680972,-5.408377,-3.013162
1265,4.6779685,-4.299304,-2.5749762
1266,4.6779685,-4.299304,-2.5749762
1267,4.6779685,-4.299304,-2.5749762
1268,2.5507488,-1.5972091,-3.6167514
1269,2.5507488,-1.5972091,-3.6167514
1270,2.5507488,-1.5972091,-3.6167514
1271,-0.9849456,1.9244276,-3.6864424
1272,-3.1695926,4.5472603,-1.7964116
1273,-3.1695926,4.5472603,-1.7964116
1274,-3.1695926,4.5472603,-1.7964116
1275,-3.1695926,4.5472603,-1.7964116
1276,-1.9289142,1.7757735,-0.6128617
1277,0.62482584,-3.1803603,7.5699935
1278,0.62482584,-3.1803603,7.5699935
1279,-5.675476,-20.638992,14.540884
1280,-5.675476,-20.638992,14.540884
1281,-5.675476,-20.638992,14.540884
1282,-5.675476,-20.638992,14.540884
1283,-5.675476,-20.638992,14.540884
1284,2.6919255,3.4573295,-16.293926
1285,2.6919255,3.4573295,-16.293926
1286,2.6919255,3.4573295,-16.293926
1287,2.6919255,3.4573295,-16.293926
1288,2.6919255,3.4573295,-16.293926
1289,1.5613167,-28.10101,-31.938799
1290,1.5613167,-28.10101,-31.938799
1291,1.5613167,-28.10101,-31.938799
1292,1.5613167,-28.10101,-31.938799
1293,1.5613167,-28.10101,-31.938799
1294,1.6453646,-5.6838512,-11.704193
1295,1.6453646,-5.6838512,-11.704193
1296,1.6453646,-5.6838512,-11.704193
1297,1.6453646,-5.6838512,-11.704193
1298,0.89312106,-5.5136614,-9.9960165
1299,-0.2545365,-5.75085,-7.502396
1300,-2.2809582,-10.266405,-1.4033905
1301,-2.0820549,-10.582558,-1.2430713
1302,-2.0820549,-10.582558,-1.2430713
1303,1.4656038,-11.746665,2.5755744
1304,1.4656038,-11.746665,2.5755744
1305,1.4656038,-11.746665,2.5755744
1306,1.4656038,-11.746665,2.5755744
1307,0.5599205,-8.529515,0.014656039
1308,0.5599205,-8.529515,0.014656039
1309,0.5599205,-8.529515,0.014656039
1310,0.5599205,-8.529515,0.014656039
1311,0.5192425,-7.6959157,-0.20578274
1312,-0.232702,-6.0287166,1.509572
1313,-0.232702,-6.0287166,1.509572
1314,-1.5984055,-5.820242,-1.8921245
1315,-1.5984055,-5.820242,-1.8921245
1316,-1.5984055,-5.820242,-1.8921245
1317,-1.5984055,-5.820242,-1.8921245
1318,-5.4095736,-9.32483,1.1572288
1319,-5.4095736,-9.32483,1.1572288
1320,-5.4095736,-9.32483,1.1572288
1321,-5.4095736,-9.32483,1.1572288
1322,-6.430113,-11.873784,1.6076777
1323,-7.153343,-14.254942,2.4149563
1324,-0.79830545,-14.734104,8.937791
1325,-0.79830545,-14.734104,8.937791
1326,6.131907,-12.374482,0.6086743
1327,6.131907,-12.374482,0.6086743
1328,2.589034,-12.774383,5.3159547
1329,2.589034,-12.774383,5.3159547
1330,2.589034,-12.774383,5.3159547
1331,0.54317075,-13.684852,2.9395826
1332,0.54317075,-13.684852,2.9395826
1333,0.06430711,-17.915361,5.1026945
1334,0.06430711,-17.915361,5.1026945
1335,0.06430711,-17.915361,5.1026945
1336,0.06430711,-17.915361,5.1026945
1337,0.06430711,-17.915361,5.1026945
1338,0.9816555,-12.776775,4.7027936
1339,0.9816555,-12.776775,4.7027936
1340,0.9816555,-12.776775,4.7027936
1341,0.9816555,-12.776775,4.7027936
1342,-1.4138591,-10.632807,-3.4444683
1343,-1.4138591,-10.632807,-3.4444683
1344,-7.0600233,-15.747166,-2.7759733
1345,-7.0600233,-15.747166,-2.7759733
1346,-7.0600233,-15.747166,-2.7759733
1347,-9.378967,-19.041185,1.3848461
1348,-9.378967,-19.041185,1.3848461
1349,-9.378967,-19.041185,1.3848461
1350,-5.6467624,-16.068401,0.6687939
1351,-5.6467624,-16.068401,0.6687939
1352,-5.6467624,-16.068401,0.6687939
1353,-2.2881367,-9.260223,-1.8873389
1354,-2.2881367,-9.260223,-1.8873389
1355,-2.2881367,-9.260223,-1.8873389
1356,-2.2881367,-9.260223,-1.8873389
1357,2.7305098,-6.6011996,-1.0106685
1358,2.7305098,-6.6011996,-1.0106685
1359,2.7305098,-6.6011996,-1.0106685
1360,2.7305098,-6.6011996,-1.0106685
1361,2.4837499,-3.6188452,-2.3258235
1362,2.4837499,-3.6188452,-2.3258235
1363,2.4837499,-3.6188452,-2.3258235
1364,2.4837499,-3.6188452,-2.3258235
1365,0.36131623,-2.2845473,-4.2780676
1366,-1.727618,0.92542416,-5.324928
1367,-1.727618,0.92542416,-5.324928
1368,-1.727618,0.92542416,-5.324928
1369,-4.5616174,2.8609185,-2.740081
1370,-4.5616174,2.8609185,-2.740081
1371,-3.5913277,3.3185458,-1.5640087
1372,0.5913263,-4.3782673,14.263018
1373,0.5913263,-4.3782673,14.263018
1374,0.5913263,-4.3782673,14.263018
1375,0.5913263,-4.3782673,14.263018
1376,0.5913263,-4.3782673,14.263018
1377,-6.068198,-16.997715,18.591932
1378,-6.068198,-16.997715,18.591932
1379,-6.300601,-22.696522,15.741184
1380,-6.300601,-22.696522,15.741184
1381,-7.620542,-13.735101,18.797716
1382,-20.391037,7.093822,-10.080065
1383,-20.391037,7.093822,-10.080065
1384,-20.391037,7.093822,-10.080065
1385,-20.391037,7.093822,-10.080065
1386,-0.024526432,-19.532312,16.555641
1387,-0.024526432,-19.532312,16.555641
1388,-0.024526432,-19.532312,16.555641
1389,2.5124638,-20.864218,-24.335604
1390,2.5124638,-20.864218,-24.335604
1391,-8.030313,-13.378271,10.042377
1392,3.14716,-7.9594254,-8.796016
1393,3.14716,-7.9594254,-8.796016
1394,3.14716,-7.9594254,-8.796016
1395,3.14716,-7.9594254,-8.796016
1396,1.0031909,-11.571989,-0.13369897
1397,1.0031909,-11.571989,-0.13369897
1398,1.0031909,-11.571989,-0.13369897
1399,1.0031909,-11.571989,-0.13369897
1400,1.0031909,-11.571989,-0.13369897
1401,0.46660042,-12.503695,2.3288147
1402,-0.8365906,-8.8746805,0.75972116
1403,-0.8365906,-8.8746805,0.75972116
1404,-0.8365906,-8.8746805,0.75972116
1405,-0.8365906,-8.8746805,0.75972116
1406,-0.8365906,-8.8746805,0.75972116
1407,-2.0174487,-5.9353967,0.03379862
1408,-2.8917263,-4.907679,0.68075806
1409,-2.8917263,-4.907679,0.68075806
1410,-3.2009985,-5.0249276,1.3513466
1411,-2.5444677,-5.5040903,-1.0944172
1412,-2.5444677,-5.5040903,-1.0944172
1413,-2.6473591,-6.1510496,-2.8576283
1414,-2.6473591,-6.1510496,-2.8576283
1415,-3.9987056,-7.288837,-1.1207383
1416,-6.087341,-11.976676,1.6842481
1417,-6.087341,-11.976676,1.6842481
1418,-1.3133606,-14.78914,5.6057854
1419,-1.3133606,-14.78914,5.6057854
1420,-1.3133606,-14.78914,5.6057854
1421,5.4876394,-11.183754,2.3862424
1422,5.4876394,-11.183754,2.3862424
1423,5.4876394,-11.183754,2.3862424
1424,5.4876394,-11.183754,2.3862424
1425,3.2117662,-11.607882,4.927719
1426,1.7315062,-12.225828,6.0009003
1427,-0.4866403,-16.18565,-1.3818551
1428,-0.4866403,-16.18565,-1.3818551
1429,-0.4866403,-16.18565,-1.3818551
1430,1.2427722,-17.66621,4.872684
1431,1.2427722,-17.66621,4.872684
1432,1.2427722,-17.66621,4.872684
1433,1.082154,-17.376379,4.2499523
1434,1.082154,-17.376379,4.2499523
1435,1.7243278,-17.615662,5.785546
1436,0.8572287,-15.150755,4.9109693
1437,0.30867413,-12.343375,0.1055833
1438,-1.4808581,-10.980364,-5.904589
1439,-1.4808581,-10.980364,-5.904589
1440,-2.4152553,-11.600703,-5.238786
1441,-6.875477,-15.399907,-1.6764714
1442,-8.470891,-17.939291,2.4795625
1443,-8.470891,-17.939291,2.4795625
1444,-8.470891,-17.939291,2.4795625
1445,-8.470891,-17.939291,2.4795625
1446,-5.8525453,-12.865609,-1.8681962
1447,-5.8525453,-12.865609,-1.8681962
1448,-5.8525453,-12.865609,-1.8681962
1449,-5.8525453,-12.865609,-1.8681962
1450,-0.2856432,-6.5078793,-0.4668995
1451,-0.2856432,-6.5078793,-0.4668995
1452,-0.2856432,-6.5078793,-0.4668995
1453,-0.2856432,-6.5078793,-0.4668995
1454,3.9424744,-5.933004,-2.251347
1455,3.9424744,-5.933004,-2.251347
1456,3.9424744,-5.933004,-2.251347
1457,3.9424744,-5.933004,-2.251347
1458,3.9424744,-5.933004,-2.251347
1459,0.47138608,-2.914458,-3.4947174
1460,0.47138608,-2.914458,-3.4947174
1461,0.47138608,-2.914458,-3.4947174
1462,-0.49860442,-2.2414765,-3.74387
1463,-2.568396,-0.08315059,-4.9007998
1464,-2.1828525,2.5375884,0.029012974
1465,-2.1828525,2.5375884,0.029012974
1466,-2.1828525,2.5375884,0.029012974
1467,-2.1828525,2.5375884,0.029012974
1468,-1.5888343,-0.4639085,4.491926
1469,-1.5888343,-0.4639085,4.491926
1470,-1.4473586,-2.548057,8.3174515
1471,-2.268994,-19.148863,11.690434
1472,-2.268994,-19.148863,11.690434
1473,-2.268994,-19.148863,11.690434
1474,-2.268994,-19.148863,11.690434
1475,-2.0461624,-17.951254,10.825429
1476,-3.1073792,-14.587843,12.97209
1477,-3.5291142,-9.18126,16.543676
1478,0.79710907,-7.5068827,18.493528
1479,3.841976,-5.3653064,-0.07627122
1480,2.5627131,-3.1229327,-12.374782
1481,-19.583757,-2.9889345,-6.282954
1482,-23.327927,-7.394121,2.187339
1483,-7.699505,-17.429022,-1.0393823
1484,-7.699505,-17.429022,-1.0393823
1485,-9.196814,-10.366904,6.9329047
1486,-9.196814,-10.366904,6.9329047
1487,-9.196814,-10.366904,6.9329047
1488,-7.4072814,-10.242477,-4.5272202
1489,-0.8557332,-8.024331,-15.544075
1490,-0.7070791,-9.020642,-7.1694946
1491,-1.224527,-11.351551,-3.188137
1492,-1.224527,-11.351551,-3.188137
1493,-0.4651049,-14.264513,-0.20578274
1494,-0.034097724,-15.031114,0.5727819
1495,2.2010977,-15.440585,2.6808586
1496,2.373381,-15.064613,2.8295128
1497,2.5387847,-13.399807,1.6507485
1498,2.3111675,-12.477374,1.1069796
1499,2.3039892,-9.722636,0.3260221
1500,0.9026923,-7.3486576,0.13938192
1501,0.9026923,-7.3486576,0.13938192
1502,-1.1240284,-5.712565,-0.102592275
1503,-1.1240284,-5.712565,-0.102592275
1504,-0.98973125,-5.0994043,0.23988047
1505,-0.98973125,-5.0994043,0.23988047
1506,-1.1383854,-5.1759744,0.3499503
1507,-4.5281177,-7.341479,1.998306
1508,-4.5281177,-7.341479,1.998306
1509,-4.5281177,-7.341479,1.998306
1510,-4.5281177,-7.341479,1.998306
1511,-5.7664037,-8.378768,3.4354951
1512,-7.213463,-13.184154,4.063013
1513,-7.213463,-13.184154,4.063013
1514,-7.213463,-13.184154,4.063013
1515,-3.7423747,-15.090934,3.8787656
1516,5.628816,-11.854642,0.39810586
1517,6.754938,-11.30848,-0.04755735
1518,1.9878374,-12.851253,4.467998
1519,1.9878374,-12.851253,4.467998
1520,1.9878374,-12.851253,4.467998
1521,1.9878374,-12.851253,4.467998
1522,1.285843,-13.625031,5.428417
1523,0.93619186,-14.554344,1.4976078
1524,1.6019948,-16.166508,-0.23449662
1525,1.6019948,-16.166508,-0.23449662
1526,0.025722843,-16.717455,6.4944196
1527,-0.77677006,-16.703098,7.0815587
1528,-0.50099725,-16.403696,1.969293
1529,-0.50099725,-16.403696,1.969293
1530,2.3805594,-15.87907,2.184946
1531,4.174877,-15.958034,4.221238
1532,1.4656038,-12.180365,-1.0274183
1533,1.4656038,-12.180365,-1.0274183
1534,-8.4038925,-17.409878,0.09601201
1535,-8.4038925,-17.409878,0.09601201
1536,-8.4038925,-17.409878,0.09601201
1537,-8.4038925,-17.409878,0.09601201
1538,-8.981161,-16.223936,2.161018
1539,-8.981161,-16.223936,2.161018
1540,-8.981161,-16.223936,2.161018
1541,-8.981161,-16.223936,2.161018
1542,-5.6563334,-14.911174,1.5885352
1543,-5.6563334,-14.911174,1.5885352
1544,-5.658726,-14.314762,0.19441684
1545,-7.1246295,-13.383057,-1.1327025
1546,-7.1629148,-12.082259,-1.5783657
1547,-4.1422753,-10.134501,-3.0996027
1548,0.5479564,-7.961818,-0.64875406
1549,0.5479564,-7.961818,-0.64875406
1550,2.34706,-6.8431735,-0.718445
1551,2.6249263,-6.7689962,-0.9987044
1552,3.3221352,-6.773782,-1.4536397
1553,3.8228333,-6.747461,-1.721935
1554,0.4019942,-2.2989044,-3.3702908
1555,0.4019942,-2.2989044,-3.3702908
1556,0.4019942,-2.2989044,-3.3702908
1557,0.4019942,-2.2989044,-3.3702908
1558,-1.4569299,0.6667002,-4.476971
1559,-1.4569299,0.6667002,-4.476971
1560,-2.8199415,3.2994034,-1.721935
1561,-2.8199415,3.2994034,-1.721935
1562,-2.8199415,3.2994034,-1.721935
1563,-2.8199415,3.2994034,-1.721935
1564,-2.420041,2.9880373,-1.0537393
1565,-1.1144571,2.134996,0.2542374
1566,-0.4531408,1.0163515,2.1658037
1567,-4.6932225,-21.321545,15.010475
1568,-4.6932225,-21.321545,15.010475
1569,-4.6932225,-21.321545,15.010475
1570,-4.6932225,-21.321545,15.010475
1571,-4.154239,-21.276081,13.594822
1572,-3.830909,-19.333408,13.027124
1573,-0.51086766,-6.1845493,-9.830912
1574,-0.51086766,-6.1845493,-9.830912
1575,-0.51086766,-6.1845493,-9.830912
1576,-17.487646,5.9464636,-9.876375
1577,-17.487646,5.9464636,-9.876375
1578,-30.119057,0.52283174,6.448956
1579,-9.218349,-14.954245,24.41038
1580,-0.00059820566,-21.740887,1.3848461
1581,2.8860433,-18.547667,-21.700508
1582,-6.700801,-10.712069,10.348958
1583,-6.700801,-10.712069,10.348958
1584,-9.067303,-11.349157,11.335698
1585,-4.386642,-10.966007,-10.216455
1586,-1.8185452,-9.748958,-10.851451
1587,0.7013961,-9.368199,-4.9175496
1588,0.5697909,-10.165907,-3.2359936
1589,0.59611195,-12.154043,-1.084846
1590,1.0462617,-11.983854,2.3838496
1591,1.0462617,-11.983854,2.3838496
1592,1.0462617,-11.983854,2.3838496
1593,1.0462617,-11.983854,2.3838496
1594,0.85483587,-11.66531,2.2666013
1595,0.41635114,-10.077073,1.8496519
1596,0.526421,-9.75135,1.7273189
1597,-1.0689936,-5.556732,0.42921257
1598,-1.0689936,-5.556732,0.42921257
1599,-1.0689936,-5.556732,0.42921257
1600,-1.0689936,-5.556732,0.42921257
1601,-0.8389834,-5.4705906,0.695115
1602,-0.8389834,-5.4705906,0.695115
1603,-0.58504516,-5.7197433,-2.1364915
1604,-0.58504516,-5.7197433,-2.1364915
1605,-0.58504516,-5.7197433,-2.1364915
1606,-0.58504516,-5.7197433,-2.1364915
1607,-3.5530424,-6.8862443,1.998306
1608,-3.5530424,-6.8862443,1.998306
1609,-5.352146,-9.322437,3.382853
1610,-6.149853,-11.332408,3.5814574
1611,-6.099305,-14.336298,4.2451663
1612,1.0677971,-14.839389,2.1945174
1613,1.0677971,-14.839389,2.1945174
1614,3.025126,-13.8691,0.599103
1615,4.970192,-11.373086,2.865405
1616,4.970192,-11.373086,2.865405
1617,2.8118658,-11.813964,3.231806
1618,1.7721843,-11.902498,3.2437701
1619,0.4019942,-12.036796,3.5479577
1620,1.8391833,-12.50848,-3.882654
1621,1.8391833,-12.50848,-3.882654
1622,1.7386848,-13.648959,-3.2503505
1623,1.4153546,-17.079071,3.6439698
1624,0.023330022,-17.615662,4.714758
1625,-1.5287145,-16.930716,5.0715876
1626,2.373381,-15.47887,1.2293127
1627,2.373381,-15.47887,1.2293127
1628,2.129014,-14.964114,5.6321063
1629,2.129014,-14.964114,5.6321063
1630,2.129014,-14.964114,5.6321063
1631,0.030807592,-12.839288,-1.2382857
1632,-1.6007984,-12.501302,-5.3297133
1633,-3.1719856,-13.346866,-6.340681
1634,-3.1719856,-13.346866,-6.340681
1635,-8.734401,-17.932112,-2.3306093
1636,-10.502398,-19.505692,-3.2527432
1637,-12.598511,-21.240189,-3.2144582
1638,-12.006586,-20.38984,-0.21296121
1639,-8.990732,-17.745173,2.759822
1640,-7.1389866,-16.34627,2.2785654
1641,-4.971089,-14.566308,0.83389866
1642,-6.7558355,-13.073785,-1.1566306
1643,-7.325926,-12.329019,-2.23699
1644,-3.370889,-9.499805,-2.2680967
1645,-3.1145577,-8.203793,-1.166202
1646,-2.9279177,-7.9426756,-0.91465646
1647,-0.8605189,-6.7378893,0.11515459
1648,0.73489565,-6.239584,-0.37567315
1649,3.5090744,-5.679065,-1.939981
1650,4.301697,-5.65753,-1.7027924
1651,4.1150565,-4.7662034,-2.6970103
1652,4.1150565,-4.7662034,-2.6970103
1653,3.5904303,-3.8608193,-1.7557336
1654,0.57936215,-1.0124631,-4.0480576
1655,0.57936215,-1.0124631,-4.0480576
1656,-0.005383851,-0.45673,-4.5894337
1657,-3.8787656,2.9590242,-2.2585254
1658,-3.8787656,2.9590242,-2.2585254
1659,-3.8787656,2.9590242,-2.2585254
1660,-3.8787656,2.9590242,-2.2585254
1661,-3.478865,2.748456,-2.1340988
1662,-2.3961127,2.134996,-1.274178
1663,-0.33589247,0.37686956,1.9381863
1664,-0.081954174,-1.3839488,5.44756
1665,2.2130618,-7.3582287,16.584354
1666,-5.6563334,-16.283756,19.300806
1667,-5.6563334,-16.283756,19.300806
1668,-5.366503,-16.19522,13.561322
1669,-5.366503,-16.19522,13.561322
1670,-5.366503,-16.19522,13.561322
1671,-8.928518,-11.104791,18.824038
1672,-1.2675978,-4.9674997,-7.265208
1673,-1.2675978,-4.9674997,-7.265208
1674,-1.9145572,-0.47108695,-16.166807
1675,-17.300707,3.1435707,-11.771192
1676,1.0510473,-18.990936,-18.555143
1677,1.0510473,-18.990936,-18.555143
1678,1.0510473,-18.990936,-18.555143
1679,1.0510473,-18.990936,-18.555143
1680,-4.3794637,-9.032606,-7.7826557
1681,-4.3794637,-9.032606,-7.7826557
1682,-4.3794637,-9.032606,-7.7826557
1683,-4.3794637,-9.032606,-7.7826557
1684,1.8463618,-8.143971,-6.065207
1685,1.8463618,-8.143971,-6.065207
1686,0.5721837,-12.388839,-2.8118658
1687,0.5721837,-12.388839,-2.8118658
1688,1.6067804,-13.512269,3.2006993
1689,1.6067804,-13.512269,3.2006993
1690,1.6067804,-13.512269,3.2006993
1691,1.6067804,-13.512269,3.2006993
1692,1.6621144,-9.7298155,0.62781686
1693,1.6621144,-9.7298155,0.62781686
1694,1.6621144,-9.7298155,0.62781686
1695,-1.0304092,-5.808278,0.9921241
1696,-1.0304092,-5.808278,0.9921241
1697,-1.0304092,-5.808278,0.9921241
1698,-1.0304092,-5.808278,0.9921241
1699,-2.2259233,-5.671887,0.10797612
1700,-2.2259233,-5.671887,0.10797612
1701,-2.2259233,-5.671887,0.10797612
1702,-2.2259233,-5.671887,0.10797612
1703,-2.554039,-5.968896,-2.0093727
1704,-4.482355,-7.0875406,-0.5171488
1705,-4.482355,-7.0875406,-0.5171488
1706,-6.446862,-10.206585,2.623431
1707,-6.446862,-10.206585,2.623431
1708,-6.506683,-13.979468,4.2595234
1709,-6.506683,-13.979468,4.2595234
1710,-5.2609196,-14.305191,5.241777
1711,1.558924,-12.865609,4.2260237
1712,3.935296,-12.048759,2.6162524
1713,4.694718,-12.010175,1.7177476
1714,4.694718,-12.010175,1.7177476
1715,4.694718,-12.010175,1.7177476
1716,2.6871397,-12.906287,5.0141597
1717,0.39960137,-15.9795685,-0.41156548
1718,0.39960137,-15.9795685,-0.41156548
1719,0.39960137,-15.9795685,-0.41156548
1720,0.39960137,-15.9795685,-0.41156548
1721,0.3900301,-16.65285,2.5731816
1722,0.3900301,-16.65285,2.5731816
1723,0.3900301,-16.65285,2.5731816
1724,0.3900301,-16.65285,2.5731816
1725,2.4526432,-16.549658,4.1781673
1726,1.9615164,-13.234403,3.2796626
1727,1.9615164,-13.234403,3.2796626
1728,1.7697915,-12.549158,1.7225332
1729,-5.1604214,-15.737595,-3.3269207
1730,-5.1604214,-15.737595,-3.3269207
1731,-5.1604214,-15.737595,-3.3269207
1732,-5.1604214,-15.737595,-3.3269207
1733,-9.695119,-19.69981,-4.3378882
1734,-11.711969,-21.771994,1.238884
1735,-11.711969,-21.771994,1.238884
1736,-10.2317095,-20.430517,2.8055844
1737,-7.21107,-17.524734,1.98365
1738,-6.2455664,-16.295721,1.047159
1739,-2.513361,-8.155936,-0.35413775
1740,-2.513361,-8.155936,-0.35413775
1741,-2.513361,-8.155936,-0.35413775
1742,-2.513361,-8.155936,-0.35413775
1743,-2.513361,-8.155936,-0.35413775
1744,-1.3301103,-6.975078,0.064905316
1745,4.699504,-5.918647,-1.9591235
1746,4.699504,-5.918647,-1.9591235
1747,4.699504,-5.918647,-1.9591235
1748,4.699504,-5.918647,-1.9591235
1749,4.004688,-4.9363933,-1.8442681
1750,1.4129617,-2.8977082,-2.8815567
1751,1.4129617,-2.8977082,-2.8815567
1752,-0.8006983,0.118145615,-4.558327
1753,-0.8006983,0.118145615,-4.558327
1754,-3.0092735,3.7471602,-2.6132615
1755,-3.0092735,3.7471602,-2.6132615
1756,-3.0092735,3.7471602,-2.6132615
1757,-3.0092735,3.7471602,-2.6132615
1758,-2.6401806,3.641876,-2.4933212
1759,0.8066803,-1.0435698,6.885048
1760,0.8066803,-1.0435698,6.885048
1761,1.4249259,-2.0425732,8.6961155
1762,2.8980074,-6.426523,14.857335
1763,-2.7314072,-13.378271,18.737896
1764,-7.2493553,-15.670595,17.877974
1765,-6.6598234,-18.964315,16.054943
1766,-4.3411784,-19.522741,12.521641
1767,-4.995017,-14.746069,13.875081
1768,-5.2633123,0.27846473,-24.196522
1769,-5.2633123,0.27846473,-24.196522
1770,-5.2633123,0.27846473,-24.196522
1771,-5.2633123,0.27846473,-24.196522
1772,-24.96402,-7.559525,21.245872
1773,-24.96402,-7.559525,21.245872
1774,6.0050874,-17.086248,-26.038696
1775,5.4493546,-14.506487,-24.184557
1776,5.4493546,-14.506487,-24.184557
1777,5.4493546,-14.506487,-24.184557
1778,5.4493546,-14.506487,-24.184557
1779,-8.501998,-9.363414,5.4789658
1780,-0.3717848,-10.922637,-3.1570303
1781,-0.3717848,-10.922637,-3.1570303
1782,-0.3717848,-10.922637,-3.1570303
1783,-0.3717848,-10.922637,-3.1570303
1784,1.2451651,-14.04886,3.3107693
1785,1.2451651,-14.04886,3.3107693
1786,1.2451651,-14.04886,3.3107693
1787,1.2451651,-14.04886,3.3107693
1788,1.5397813,-13.564912,3.272484
1789,0.48095736,-9.329616,-0.25842485
1790,0.48095736,-9.329616,-0.25842485
1791,0.48095736,-9.329616,-0.25842485
1792,0.48095736,-9.329616,-0.25842485
1793,-0.58504516,-8.556135,-0.39960137
1794,-1.7156538,-5.712565,1.3154542
1795,-1.7156538,-5.712565,1.3154542
1796,-1.7156538,-5.712565,1.3154542
1797,-0.32153556,-4.871787,-2.0336
1798,-0.32153556,-4.871787,-2.0336
1799,-0.32153556,-4.871787,-2.0336
1800,-0.32153556,-4.871787,-2.0336
1801,-0.9849456,-4.7398825,-3.204887
1802,-5.4957156,-7.92114,1.902294
1803,-5.4957156,-7.92114,1.902294
1804,-5.4957156,-7.92114,1.902294
1805,-8.415856,-14.0392885,3.9864426
1806,-8.415856,-14.0392885,3.9864426
1807,5.1212387,-12.812668,1.6818552
1808,5.1212387,-12.812668,1.6818552
1809,5.1212387,-12.812668,1.6818552
1810,5.1212387,-12.812668,1.6818552
1811,4.618148,-12.539587,3.816253
1812,2.605784,-12.544373,-3.8180475
1813,2.605784,-12.544373,-3.8180475
1814,2.605784,-12.544373,-3.8180475
1815,2.605784,-12.544373,-3.8180475
1816,-1.7228323,-15.51267,5.514858
1817,-1.7228323,-15.51267,5.514858
1818,-1.7228323,-15.51267,5.514858
1819,-1.7228323,-15.51267,5.514858
1820,-2.7696922,-16.106688,4.741079
1821,0.5024927,-15.931712,1.7371893
1822,2.2322044,-15.926927,2.6162524
1823,3.0275187,-14.906387,3.6511483
1824,3.0059834,-14.257335,3.4833515
1825,2.1194427,-13.054642,-0.72083783
1826,1.5804594,-12.987643,-2.5435705
1827,-0.048454657,-13.934005,-2.5989046
1828,-6.068198,-17.464914,-2.3641088
1829,-6.068198,-17.464914,-2.3641088
1830,-10.109377,-20.035105,-3.6290147
1831,-12.929019,-21.443878,-4.3929234
1832,-6.0490556,-16.073189,1.7009978
1833,-6.0490556,-16.073189,1.7009978
1834,-6.0490556,-16.073189,1.7009978
1835,-6.0490556,-16.073189,1.7009978
1836,-8.023134,-13.210475,-1.4321043
1837,-8.023134,-13.210475,-1.4321043
1838,-5.6706905,-11.123934,-3.2742786
1839,-2.676372,-7.379764,0.9200403
1840,-2.676372,-7.379764,0.9200403
1841,-2.676372,-7.379764,0.9200403
1842,-1.4736797,-6.905387,0.16570297
1843,2.617748,-5.942575,-2.6156542
1844,3.7220356,-6.0023956,-3.0924242
1845,5.0850472,-5.5686965,-2.524428
1846,5.0850472,-5.5686965,-2.524428
1847,4.272983,-4.744668,-2.4215364
1848,2.495714,-3.2763724,-3.2671003
1849,-2.1684954,1.6561323,-4.124628
1850,-2.1684954,1.6561323,-4.124628
1851,-2.1684954,1.6561323,-4.124628
1852,-2.1684954,1.6561323,-4.124628
1853,-3.179164,2.4128625,-3.0681968
1854,-4.2164526,3.234498,-2.4741786
1855,-4.2164526,3.234498,-2.4741786
1856,0.6726823,-8.953643,22.79343
1857,0.6726823,-8.953643,22.79343
1858,0.6726823,-8.953643,22.79343
1859,0.6726823,-8.953643,22.79343
1860,0.6726823,-8.953643,22.79343
1861,-9.89163,-18.94278,27.22763
1862,-9.89163,-18.94278,27.22763
1863,-9.89163,-18.94278,27.22763
1864,-9.89163,-18.94278,27.22763
1865,-5.299205,4.0130625,-33.713974
1866,-5.299205,4.0130625,-33.713974
1867,-5.299205,4.0130625,-33.713974
1868,8.324032,-15.780965,-15.086448
1869,8.324032,-15.780965,-15.086448
1870,8.324032,-15.780965,-15.086448
1871,8.324032,-15.780965,-15.086448
1872,-3.979264,-11.684452,-6.1010995
1873,-3.979264,-11.684452,-6.1010995
1874,-3.979264,-11.684452,-6.1010995
1875,-3.979264,-11.684452,-6.1010995
1876,-0.32392836,-12.24497,-2.891128
1877,-0.32392836,-12.24497,-2.891128
1878,1.233201,-14.568701,-0.011665011
1879,1.233201,-14.568701,-0.011665011
1880,1.233201,-14.568701,-0.011665011
1881,1.233201,-14.568701,-0.011665011
1882,1.233201,-14.568701,-0.011665011
1883,3.0753753,-13.061821,1.4641083
1884,2.5818555,-12.137294,1.6387844
1885,1.4847465,-11.373086,1.358525
1886,0.6200402,-10.592129,1.0040882
1887,-0.005383851,-9.451948,-0.059521463
1888,-1.102493,-8.10808,-1.2765709
1889,-1.102493,-8.10808,-1.2765709
1890,-2.7984061,-6.1941204,1.4784653
1891,-2.7984061,-6.1941204,1.4784653
1892,-2.7984061,-6.1941204,1.4784653
1893,-3.0116663,-4.759025,-0.45972106
1894,-3.0116663,-4.759025,-0.45972106
1895,-3.0116663,-4.759025,-0.45972106
1896,-4.2885365,-6.68764,-0.25124636
1897,-4.2885365,-6.68764,-0.25124636
1898,-4.2885365,-6.68764,-0.25124636
1899,-5.3159547,-8.577671,0.44835514
1900,-5.009374,-11.677274,2.6018956
1901,-5.009374,-11.677274,2.6018956
1902,-3.979264,-12.312269,3.9194436
1903,1.9734805,-12.817453,5.1026945
1904,1.9734805,-12.817453,5.1026945
1905,5.9691954,-14.228621,1.4279169
1906,7.289136,-15.174683,0.5297111
1907,6.3714886,-14.180764,3.9433718
1908,4.4575295,-13.011571,4.8750772
1909,1.6645073,-11.674881,5.109873
1910,1.3890336,-17.275581,2.431706
1911,1.3890336,-17.275581,2.431706
1912,1.3890336,-17.275581,2.431706
1913,1.3890336,-17.275581,2.431706
1914,1.6764714,-18.540487,4.578068
1915,1.0079765,-18.490238,4.132405
1916,1.7482561,-16.973787,2.4795625
1917,1.7482561,-16.973787,2.4795625
1918,0.8811569,-12.707384,3.5383866
1919,0.8811569,-12.707384,3.5383866
1920,0.8811569,-12.707384,3.5383866
1921,-7.2493553,-17.534306,-2.984448
1922,-7.2493553,-17.534306,-2.984448
1923,-7.2493553,-17.534306,-2.984448
1924,-7.2493553,-17.534306,-2.984448
1925,-8.066205,-18.205193,-2.7352953
1926,-8.626724,-18.97658,1.7347964
1927,-8.626724,-18.97658,1.7347964
1928,-8.626724,-18.97658,1.7347964
1929,-8.626724,-18.97658,1.7347964
1930,-4.686044,-14.729319,-1.2981063
1931,-4.686044,-14.729319,-1.2981063
1932,-5.0958147,-13.8021,-1.7123637
1933,-6.0155563,-12.237792,-3.6672997
1934,-3.6918263,-10.920244,-3.6191442
1935,-0.64965135,-8.493623,-0.8237292
1936,-0.73340017,-7.353443,-0.026021946
1937,0.13369897,-6.6828547,0.17527425
1938,0.81625164,-6.2204413,-0.102592275
1939,2.9482565,-6.0119667,-1.3986049
1940,3.662215,-6.1028943,-1.8323039
1941,3.0801609,-5.3123655,-2.579762
1942,3.0801609,-5.3123655,-2.579762
1943,1.9782661,-3.987639,-3.1115668
1944,-0.64965135,-0.6771688,-5.672186
1945,-0.64965135,-0.6771688,-5.672186
1946,-3.2703903,3.5027933,-4.208676
1947,-3.2703903,3.5027933,-4.208676
1948,-3.2703903,3.5027933,-4.208676
1949,-3.2703903,3.5027933,-4.208676
1950,-3.2703903,3.5027933,-4.208676
1951,-1.5984055,3.1483564,-2.076671
1952,-1.6247265,1.9220347,0.20638095
1953,-1.5598212,-1.3695918,8.830113
1954,-1.34686,-13.910076,23.143381
1955,-1.34686,-13.910076,23.143381
1956,-4.688437,-15.845571,21.732214
1957,-6.655038,-18.57638,14.917155
1958,-3.749553,-18.77289,10.899905
1959,-9.098708,-13.785351,18.117556
1960,-9.098708,-13.785351,18.117556
1961,-2.5731816,-9.217153,15.417853
1962,1.9160527,-4.653741,-7.8257265
1963,-4.700401,7.769196,-19.910976
1964,-0.44835514,-23.880072,-15.328422
1965,-0.44835514,-23.880072,-15.328422
1966,-0.44835514,-23.880072,-15.328422
1967,-0.44835514,-23.880072,-15.328422
1968,-1.3157533,-19.94657,-18.124136
1969,-10.720444,-10.218549,13.664214
1970,-10.720444,-10.218549,13.664214
1971,-5.682655,-9.52134,-6.4866433
1972,-2.0844476,-8.347661,-12.051452
1973,-0.2760719,-10.841281,-2.7089744
1974,-0.2760719,-10.841281,-2.7089744
1975,-0.2760719,-10.841281,-2.7089744
1976,2.318346,-14.137394,3.193521
1977,2.318346,-14.137394,3.193521
1978,2.318346,-14.137394,3.193521
1979,2.318346,-14.137394,3.193521
1980,2.2322044,-11.98864,1.2771691
1981,2.2322044,-11.98864,1.2771691
1982,1.1542379,-7.413264,-0.3182454
1983,1.1542379,-7.413264,-0.3182454
1984,1.1542379,-7.413264,-0.3182454
1985,1.1542379,-7.413264,-0.3182454
1986,1.1542379,-7.413264,-0.3182454
1987,-1.3420744,-5.930611,-1.2574283
1988,-1.3420744,-5.930611,-1.2574283
1989,-1.3420744,-5.930611,-1.2574283
1990,-1.3420744,-5.930611,-1.2574283
1991,-1.3660027,-5.959325,-1.4009976
1992,-2.9853454,-6.663413,-1.6357933
1993,-2.9853454,-6.663413,-1.6357933
1994,-3.7423747,-6.9391856,-1.1973087
1995,-6.399006,-8.421839,1.5287145
1996,-8.964411,-11.406586,5.363811
1997,-8.964411,-11.406586,5.363811
1998,-9.017053,-11.950355,5.4667025
1999,-5.2106705,-13.188939,6.9113693
2000,4.6301117,-12.5348015,0.019441685
2001,6.829116,-12.340982,-2.7735806
2002,7.7946196,-12.647563,-0.65353966
2003,7.557431,-12.820146,0.5608178
2004,6.1031933,-13.150654,3.5168512
2005,2.536392,-13.46202,5.9506507
2006,1.3866407,-13.34208,5.5483575
2007,-0.14416756,-12.987643,-0.018843478
2008,-0.2760719,-13.414164,-1.5999011
2009,-0.4124628,-15.744773,2.0557337
2010,-2.0724835,-16.945072,4.999803
2011,-2.0724835,-16.945072,4.999803
2012,1.8224336,-17.598911,2.3718855
2013,1.8224336,-17.598911,2.3718855
2014,2.7879374,-17.47927,3.399603
2015,3.0729825,-15.220146,3.844967
2016,2.8980074,-13.924433,3.7827535
2017,2.6512475,-12.400804,-0.28235307
2018,0.4235296,-12.396018,-4.510471
2019,0.4235296,-12.396018,-4.510471
2020,-0.939482,-13.450056,-3.2910285
2021,-10.222138,-18.794426,1.0495518
2022,-10.222138,-18.794426,1.0495518
2023,-10.222138,-18.794426,1.0495518
2024,-10.222138,-18.794426,1.0495518
2025,-9.778868,-18.317656,1.1524432
2026,-8.303393,-16.94268,0.802792
2027,-6.250352,-15.014364,0.012263216
2028,-5.2609196,-11.545669,-3.528217
2029,-5.2609196,-11.545669,-3.528217
2030,-5.2609196,-11.545669,-3.528217
2031,-2.990131,-9.880862,-2.6084757
2032,-0.18484555,-7.2912297,-0.45972106
2033,-0.18484555,-7.2912297,-0.45972106
2034,2.035694,-6.795317,-0.5913263
2035,2.035694,-6.795317,-0.5913263
2036,2.778366,-6.713961,-0.78783685
2037,2.3446672,-6.7905316,-2.6036901
2038,2.3446672,-6.7905316,-2.6036901
2039,0.90029955,-5.506483,-2.7233312
2040,-0.92512506,-2.274976,-4.167998
2041,-0.92512506,-2.274976,-4.167998
2042,-1.0328021,-1.7312071,-4.4168515
2043,-2.6449664,1.4787644,-5.466104
2044,-2.9853454,2.1230319,-5.169095
2045,-3.2081769,3.9915273,-2.4670002
2046,-3.3086755,4.235894,-1.5855441
2047,-2.0724835,3.9340994,-0.097806625
2048,-0.5778667,0.43669012,5.6033926
2049,-0.5778667,0.43669012,5.6033926
2050,0.15044872,-1.1659029,8.638389
2051,1.4440684,-8.498408,20.038692
2052,-1.5502499,-13.466805,20.292631
2053,-6.696015,-17.18226,17.120945
2054,-6.696015,-17.18226,17.120945
2055,-6.696015,-17.18226,17.120945
2056,-7.98455,-16.750956,19.42314
2057,-4.3411784,-13.552947,23.080868
2058,-0.5419743,-11.341979,0.35234314
2059,-1.442573,3.8168511,-27.754051
2060,-21.469004,-2.8235307,15.662221
2061,-21.469004,-2.8235307,15.662221
2062,-0.33110684,-17.098213,-2.6443682
2063,-0.33110684,-17.098213,-2.6443682
2064,-2.4774687,-15.627524,-11.866905
2065,-6.3867426,-12.192328,-2.141277
2066,-8.2456665,-12.077474,4.9639106
2067,-4.58076,-12.189936,-6.7166533
2068,0.57936215,-11.116755,-5.425426
2069,0.57936215,-11.116755,-5.425426
2070,0.9194421,-11.318051,-4.263711
2071,0.90508515,-13.4045925,-1.1853445
2072,0.90508515,-13.4045925,-1.1853445
2073,1.6477575,-14.348262,-0.023629123
2074,2.0715861,-14.120645,0.6302097
2075,3.7100716,-13.296617,2.4293132
2076,3.3723843,-12.352947,1.9453648
2077,0.1576272,-8.148758,-0.042771704
2078,0.1576272,-8.148758,-0.042771704
2079,0.1576272,-8.148758,-0.042771704
2080,0.1576272,-8.148758,-0.042771704
2081,-0.88683987,-6.9655066,-1.5687944
2082,-3.0212376,-5.020142,0.6349953
2083,-3.0212376,-5.020142,0.6349953
2084,-3.0212376,-5.020142,0.6349953
2085,-3.0212376,-5.020142,0.6349953
2086,-2.3913271,-5.278866,-1.1853445
2087,-2.3913271,-5.278866,-1.1853445
2088,-2.3913271,-5.278866,-1.1853445
2089,-3.2081769,-5.916254,-1.5089738
2090,-4.2451663,-6.649056,-1.151845
2091,-6.2694945,-9.3562355,1.2843475
2092,-6.2694945,-9.3562355,1.2843475
2093,-6.2718873,-12.407982,2.6473591
2094,-1.1096715,-15.138791,5.076373
2095,-1.1096715,-15.138791,5.076373
2096,6.5057855,-12.249757,-0.8668
2097,6.5057855,-12.249757,-0.8668
2098,6.5057855,-12.249757,-0.8668
2099,5.858826,-13.629817,2.1897318
2100,5.5833526,-14.154144,5.634499
2101,3.4250264,-14.468203,6.1471615
2102,-1.4330016,-15.605989,4.360022
2103,-1.4330016,-15.605989,4.360022
2104,-1.4330016,-15.605989,4.360022
2105,-1.4330016,-15.605989,4.360022
2106,-1.4330016,-15.605989,4.360022
2107,-4.1279182,-16.501802,4.2714877
2108,1.7267207,-17.024036,2.922833
2109,1.7267207,-17.024036,2.922833
2110,2.1385853,-17.055143,3.437888
2111,-0.5057829,-14.123037,-4.8003016
2112,-0.5057829,-14.123037,-4.8003016
2113,-0.5057829,-14.123037,-4.8003016
2114,-0.5057829,-14.123037,-4.8003016
2115,-4.173382,-17.220547,-1.4273187
2116,-4.173382,-17.220547,-1.4273187
2117,-6.9065833,-19.414764,-0.8045866
2118,-9.27817,-21.072393,-1.5831513
2119,-10.8664055,-21.39363,-0.70648086
2120,-8.681759,-18.169,0.9299107
2121,-8.681759,-18.169,0.9299107
2122,-7.7066836,-17.187046,0.56560344
2123,-6.736693,-14.8226385,-0.9170493
2124,-2.065305,-6.675676,-0.6798607
2125,-2.065305,-6.675676,-0.6798607
2126,-2.065305,-6.675676,-0.6798607
2127,-2.065305,-6.675676,-0.6798607
2128,-2.065305,-6.675676,-0.6798607
2129,-0.45553362,-5.875576,-0.2009971
2130,1.7937196,-5.3700924,-1.463211
2131,3.554538,-5.492126,-1.9639091
2132,3.7244284,-5.6934223,-2.4526432
2133,3.0155547,-4.9938207,-2.3258235
2134,2.7759733,-4.1171503,-2.5292134
2135,2.1843479,-2.2103698,-3.9451663
2136,-2.5253253,4.7509494,-3.839583
2137,-2.5253253,4.7509494,-3.839583
2138,-2.5253253,4.7509494,-3.839583
2139,-2.5253253,4.7509494,-3.839583
2140,-2.4966114,4.9666023,-3.7390845
2141,-1.9025931,4.9307103,-2.1939192
2142,-1.9025931,4.9307103,-2.1939192
2143,-0.24735804,2.5495524,1.2364911
2144,1.20688,-7.315158,17.37249
2145,1.20688,-7.315158,17.37249
2146,-0.14656039,-10.5347,21.284456
2147,-10.025628,-16.41566,16.4022
2148,-8.540583,-19.75963,12.437892
2149,-8.540583,-19.75963,12.437892
2150,-4.240381,2.8728826,-14.724833
2151,-4.240381,2.8728826,-14.724833
2152,-4.240381,2.8728826,-14.724833
2153,-4.240381,2.8728826,-14.724833
2154,-7.309176,4.7222357,-15.462719
2155,-20.263918,1.3516457,2.2447667
2156,1.3914263,-18.741783,-1.2287145
2157,1.3914263,-18.741783,-1.2287145
2158,1.3914263,-18.741783,-1.2287145
2159,-1.820938,-9.900004,-10.587941
2160,-1.820938,-9.900004,-10.587941
2161,-1.820938,-9.900004,-10.587941
2162,-1.820938,-9.900004,-10.587941
2163,-0.05802595,-9.624531,-9.890733
2164,2.5292134,-11.868999,-4.138985
2165,2.5292134,-11.868999,-4.138985
2166,2.5292134,-11.868999,-4.138985
2167,0.37328035,-15.126826,-0.4019942
2168,0.37328035,-15.126826,-0.4019942
2169,0.91226363,-10.632807,1.6363916
2170,0.91226363,-10.632807,1.6363916
2171,0.91226363,-10.632807,1.6363916
2172,0.91226363,-10.632807,1.6363916
2173,1.3480564,-9.636495,1.4422739
2174,1.3746766,-8.910572,1.0495518
2175,-0.6879365,-6.450452,0.038584266
2176,-0.6879365,-6.450452,0.038584266
2177,-2.5229323,-4.5218368,1.0830513
2178,-2.5229323,-4.5218368,1.0830513
2179,-3.124129,-4.124329,1.6004993
2180,-2.9446673,-4.907679,0.50817573
2181,-2.9446673,-4.907679,0.50817573
2182,-4.2044883,-8.155936,-0.7423732
2183,-4.2044883,-8.155936,-0.7423732
2184,-4.2044883,-8.155936,-0.7423732
2185,-4.2044883,-8.155936,-0.7423732
2186,-4.0417767,-13.713566,4.834399
2187,-4.0417767,-13.713566,4.834399
2188,-4.0417767,-13.713566,4.834399
2189,-4.0417767,-13.713566,4.834399
2190,-3.4163525,-13.727922,4.9325047
2191,6.0768723,-12.486945,3.1097722
2192,6.0768723,-12.486945,3.1097722
2193,6.0768723,-12.486945,3.1097722
2194,6.0768723,-12.486945,3.1097722
2195,5.7631135,-12.575779,3.7061832
2196,0.34456646,-15.543776,0.6517451
2197,0.34456646,-15.543776,0.6517451
2198,0.34456646,-15.543776,0.6517451
2199,0.6583253,-17.49602,-0.73519474
2200,-0.80548394,-17.615662,4.3791647
2201,-0.80548394,-17.615662,4.3791647
2202,-0.9873384,-17.364117,4.8008995
2203,0.3804588,-17.752352,2.8151557
2204,1.9064814,-16.1354,3.2820554
2205,1.9064814,-16.1354,3.2820554
2206,1.8990039,-14.539987,3.0738797
2207,1.422533,-11.277373,0.2111666
2208,-2.8462625,-12.043974,-3.9308095
2209,-2.8462625,-12.043974,-3.9308095
2210,-2.8462625,-12.043974,-3.9308095
2211,-7.306783,-16.770098,-3.216851
2212,-12.143276,-21.86292,-2.1460629
2213,-12.143276,-21.86292,-2.1460629
2214,-12.104991,-21.903599,-0.08105687
2215,-7.266105,-13.986647,-1.1733804
2216,-7.266105,-13.986647,-1.1733804
2217,-7.266105,-13.986647,-1.1733804
2218,-7.266105,-13.986647,-1.1733804
2219,-6.27428,-12.24497,-3.5928233
2220,-6.27428,-12.24497,-3.5928233
2221,-0.13220344,-6.323333,-1.1542379
2222,-0.13220344,-6.323333,-1.1542379
2223,-0.13220344,-6.323333,-1.1542379
2224,-0.13220344,-6.323333,-1.1542379
2225,5.2049875,-4.601099,-2.4311078
2226,5.2049875,-4.601099,-2.4311078
2227,5.2049875,-4.601099,-2.4311078
2228,5.2049875,-4.601099,-2.4311078
2229,1.463211,-1.5777674,-3.5736806
2230,1.463211,-1.5777674,-3.5736806
2231,1.463211,-1.5777674,-3.5736806
2232,0.41156548,-0.052043892,-4.817051
2233,-1.7659031,1.5936198,-5.075775
2234,-4.540082,3.4836507,-3.463611
2235,-4.540082,3.4836507,-3.463611
2236,-4.467998,4.211966,-3.6505501
2237,-3.0020952,4.6935215,-2.4023938
2238,2.4861426,-11.370693,23.878576
2239,2.4861426,-11.370693,23.878576
2240,2.4861426,-11.370693,23.878576
2241,2.4861426,-11.370693,23.878576
2242,-1.3707882,-14.964114,24.209383
2243,-10.4210415,-20.765812,19.578672
2244,-9.50818,-21.295225,16.878971
2245,-2.0318055,-11.080863,20.532213
2246,-2.0318055,-11.080863,20.532213
2247,-2.0318055,-11.080863,20.532213
2248,9.080762,-1.556232,-18.744474
2249,7.806584,8.979067,-26.34049
2250,-5.0790653,11.017752,-18.823439
2251,-26.851658,2.1110678,11.335698
2252,-5.569893,-14.7508545,6.84437
2253,-5.569893,-14.7508545,6.84437
2254,-5.569893,-14.7508545,6.84437
2255,-5.569893,-14.7508545,6.84437
2256,0.3589234,-8.230113,-13.502997
2257,0.3589234,-8.230113,-13.502997
2258,0.3589234,-8.230113,-13.502997
2259,1.2020943,-7.109076,-11.929418
2260,0.811466,-6.617949,-9.51476
2261,-2.923132,-10.719247,-2.210669
2262,-2.923132,-10.719247,-2.210669
2263,-2.923132,-10.719247,-2.210669
2264,-0.6113662,-13.531412,1.902294
2265,-0.6113662,-13.531412,1.902294
2266,-0.6113662,-13.531412,1.902294
2267,-0.13459627,-13.564912,2.6377878
2268,2.035694,-12.745669,1.0902299
2269,2.035694,-12.745669,1.0902299
2270,2.0093727,-9.911968,0.03619144
2271,1.829612,-8.776276,-0.2416751
2272,1.1614163,-6.7689962,-0.29192436
2273,1.0103694,-5.8875403,0.66161543
2274,0.47856453,-5.1903315,1.5502499
2275,-1.2699906,-4.342375,0.98016
2276,-1.2699906,-4.342375,0.98016
2277,-1.5047864,-4.855037,-1.5711871
2278,-1.6701902,-4.9172506,-1.750948
2279,-3.2991042,-5.810671,-1.492224
2280,-6.3891354,-13.792529,5.2055855
2281,-6.3891354,-13.792529,5.2055855
2282,-6.3891354,-13.792529,5.2055855
2283,-6.3891354,-13.792529,5.2055855
2284,-6.168996,-14.195121,5.519644
2285,-0.050847482,-14.796318,3.1695926
2286,6.855437,-12.484552,-0.0212363
2287,6.855437,-12.484552,-0.0212363
2288,4.658826,-11.176576,4.1494536
2289,4.658826,-11.176576,4.1494536
2290,0.36370903,-13.383057,4.834399
2291,0.36370903,-13.383057,4.834399
2292,1.6115661,-18.32005,3.8138602
2293,1.6115661,-18.32005,3.8138602
2294,1.6115661,-18.32005,3.8138602
2295,1.6115661,-18.32005,3.8138602
2296,-2.1326032,-17.354544,1.6914265
2297,-2.1326032,-17.354544,1.6914265
2298,-2.1326032,-17.354544,1.6914265
2299,1.0582259,-10.7431755,-4.1437707
2300,1.0582259,-10.7431755,-4.1437707
2301,1.0582259,-10.7431755,-4.1437707
2302,1.0582259,-10.7431755,-4.1437707
2303,1.0582259,-10.7431755,-4.1437707
2304,-5.6443696,-16.19522,-0.7543373
2305,-5.6443696,-16.19522,-0.7543373
2306,-5.6443696,-16.19522,-0.7543373
2307,-6.619146,-17.258831,-0.47168517
2308,-9.024232,-19.9035,-0.28235307
2309,-11.225927,-21.707388,0.12233306
2310,-10.205389,-20.061724,1.3274183
2311,-8.114061,-17.33301,0.7405786
2312,-6.372386,-15.217753,-0.74476606
2313,-5.6204414,-13.699209,-1.4464613
2314,-6.005985,-13.090834,-1.5089738
2315,-3.2416766,-6.9344,-0.023629123
2316,-3.2416766,-6.9344,-0.023629123
2317,-3.2416766,-6.9344,-0.023629123
2318,-3.2416766,-6.9344,-0.023629123
2319,-1.6462619,-5.777171,-0.37806597
2320,-0.82941216,-5.6910295,-1.0609177
2321,2.6344976,-4.0812583,-1.7434704
2322,2.6344976,-4.0812583,-1.7434704
2323,2.6344976,-4.0812583,-1.7434704
2324,2.6344976,-4.0812583,-1.7434704
2325,2.6249263,-3.8823547,-1.8466609
2326,1.4273187,-3.1660035,-2.864807
2327,0.57457656,-1.5083755,-3.9116669
2328,-0.77407813,0.08225328,-3.99063
2329,-2.420041,0.846461,-2.6778677
2330,-0.19680966,1.6489539,2.9587252
2331,-0.19680966,1.6489539,2.9587252
2332,-0.19680966,1.6489539,2.9587252
2333,-0.19680966,1.6489539,2.9587252
2334,0.3469593,0.6762715,5.0476594
2335,0.17916259,-2.7038896,10.26491
2336,0.5312066,-5.003392,13.556537
2337,-6.643074,-18.748962,19.188343
2338,-6.5138617,-17.9031,19.41596
2339,-6.5138617,-17.9031,19.41596
2340,-6.5138617,-17.9031,19.41596
2341,-5.7951174,-16.688742,18.802502
2342,-0.80548394,2.5782664,-21.104097
2343,-0.80548394,2.5782664,-21.104097
2344,-6.2623158,11.901601,-22.958237
2345,-28.825438,6.372685,6.750751
2346,-0.9418748,-19.800608,16.335201
2347,3.3580275,-22.61038,6.8659053
2348,9.310772,-24.903002,-18.521645
2349,-1.6965113,-9.312865,-9.924232
2350,-1.6965113,-9.312865,-9.924232
2351,-1.6965113,-9.312865,-9.924232
2352,-1.6965113,-9.312865,-9.924232
2353,0.016151553,-8.378768,-8.386245
2354,0.016151553,-8.378768,-8.386245
2355,1.2834502,-8.733205,-3.9978085
2356,0.9194421,-10.12493,-2.6132615
2357,-0.6472585,-12.71217,-3.039483
2358,1.3097713,-13.981861,2.5298119
2359,1.3097713,-13.981861,2.5298119
2360,1.3097713,-13.981861,2.5298119
2361,1.3097713,-13.981861,2.5298119
2362,1.1255239,-13.8356,2.3718855
2363,0.16719848,-12.280863,1.4446666
2364,0.059521463,-11.282159,0.97776717
2365,-0.9346963,-5.875576,-1.192523
2366,-0.9346963,-5.875576,-1.192523
2367,-0.9346963,-5.875576,-1.192523
2368,-0.9346963,-5.875576,-1.192523
2369,-2.4272194,-5.293223,-0.83090764
2370,-2.9733813,-5.152046,-0.1698904
2371,-3.7543387,-5.4346986,-1.6573287
2372,-3.7543387,-5.4346986,-1.6573287
2373,-3.7543387,-5.4346986,-1.6573287
2374,-6.18096,-8.52473,0.26859435
2375,-6.18096,-8.52473,0.26859435
2376,-6.18096,-8.52473,0.26859435
2377,-6.954739,-12.67867,2.6330023
2378,-6.954739,-12.67867,2.6330023
2379,-3.2703903,-14.154144,7.3375907
2380,7.152446,-10.860424,-1.8299111
2381,7.152446,-10.860424,-1.8299111
2382,7.152446,-10.860424,-1.8299111
2383,3.6454654,-15.141184,9.369097
2384,3.6454654,-15.141184,9.369097
2385,3.6454654,-15.141184,9.369097
2386,3.6454654,-15.141184,9.369097
2387,2.9338996,-14.707784,1.7515461
2388,2.6991038,-14.868103,-2.5941188
2389,1.2044871,-15.153148,-1.3507484
2390,-0.62093747,-15.969997,4.9348974
2391,3.3005998,-14.611772,5.311169
2392,3.3005998,-14.611772,5.311169
2393,3.3005998,-14.611772,5.311169
2394,3.3005998,-14.611772,5.311169
2395,0.2868396,-12.424731,-2.996412
2396,0.2868396,-12.424731,-2.996412
2397,0.2868396,-12.424731,-2.996412
2398,-3.289533,-13.145868,-2.8743782
2399,-3.289533,-13.145868,-2.8743782
2400,-9.505787,-18.286549,-2.6228328
2401,-9.505787,-18.286549,-2.6228328
2402,-10.066306,-18.768105,-2.6922245
2403,-6.7127647,-15.177075,-0.60807604
2404,-6.7127647,-15.177075,-0.60807604
2405,-6.7127647,-15.177075,-0.60807604
2406,-6.7127647,-15.177075,-0.60807604
2407,-6.6768723,-14.853745,-0.91226363
2408,-6.4875402,-14.063217,-1.1398809
2409,-6.6000032,-11.605489,-2.3665016
2410,-6.5018973,-10.836495,-2.630011
2411,-1.4617156,-8.146365,-2.361716
2412,1.4967105,-6.558129,-0.4549354
2413,1.4967105,-6.558129,-0.4549354
2414,1.4967105,-6.558129,-0.4549354
2415,3.1280174,-6.486344,-1.1494522
2416,3.4920256,-6.7689962,-1.6429719
2417,2.605784,-6.905387,-2.00698
2418,2.1843479,-6.5629144,-1.9208384
2419,1.695614,-5.029713,-2.6443682
2420,-0.47706902,-1.5275182,-4.179962
2421,-0.47706902,-1.5275182,-4.179962
2422,-1.3444673,-0.2653042,-4.584648
2423,-2.1302104,2.367399,-5.185845
2424,-0.98973125,4.2311087,-0.5051847
2425,-0.98973125,4.2311087,-0.5051847
2426,-0.98973125,4.2311087,-0.5051847
2427,-0.98973125,4.2311087,-0.5051847
2428,-0.10827523,3.0478578,1.4976078
2429,-6.875477,-15.8766775,18.160627
2430,-6.875477,-15.8766775,18.160627
2431,-6.875477,-15.8766775,18.160627
2432,-6.875477,-15.8766775,18.160627
2433,-5.7376895,-16.04926,13.566108
2434,-5.7376895,-16.04926,13.566108
2435,-5.7376895,-16.04926,13.566108
2436,-7.22782,-13.346866,14.2031975
2437,-0.20398813,-10.980364,16.663319
2438,-0.20398813,-10.980364,16.663319
2439,-0.7791629,-1.204188,-21.537497
2440,2.9578278,-19.065113,-11.505289
2441,2.9578278,-19.065113,-11.505289
2442,2.9578278,-19.065113,-11.505289
2443,2.9578278,-19.065113,-11.505289
2444,-2.3575284,-12.633206,-6.5632133
2445,-2.3575284,-12.633206,-6.5632133
2446,-8.423035,-12.07508,8.0348
2447,-9.34786,-12.496516,-1.3938192
2448,-1.986342,-9.772886,-6.2518473
2449,-1.986342,-9.772886,-6.2518473
2450,-1.1886346,-9.480662,-4.2852464
2451,-0.096311115,-10.331012,-2.577369
2452,0.08823533,-12.367304,-2.9916265
2453,0.7683952,-13.845171,-1.640579
2454,0.6128617,-14.027325,-0.35413775
2455,0.69182485,-13.804493,2.5875385
2456,0.9816555,-12.039188,2.5492535
2457,0.9816555,-12.039188,2.5492535
2458,1.0295119,-11.222338,1.6507485
2459,0.6583253,-9.569197,0.49860442
2460,0.73011,-9.114262,0.17048861
2461,0.63200426,-8.258827,-0.31345975
2462,-0.40767714,-5.3075795,-0.17467605
2463,-0.40767714,-5.3075795,-0.17467605
2464,-0.40767714,-5.3075795,-0.17467605
2465,-0.40767714,-5.3075795,-0.17467605
2466,-0.49860442,-5.2429733,-0.22731815
2467,-1.0713863,-4.8382874,-1.2263216
2468,-1.7084754,-4.8191447,-1.7195421
2469,-2.8917263,-5.0587263,-1.2550355
2470,-6.04427,-6.905387,3.0400813
2471,-6.04427,-6.905387,3.0400813
2472,-6.602396,-7.846963,4.125226
2473,-6.8874407,-11.868999,3.0161529
2474,-6.2048883,-13.315759,2.4891338
2475,-2.8438697,-16.017855,5.759225
2476,0.03798606,-16.226328,5.5052867
2477,4.610969,-15.007185,0.5512465
2478,6.721439,-11.4496565,-1.1685947
2479,6.721439,-11.4496565,-1.1685947
2480,4.5628138,-12.046367,3.4043884
2481,1.2810575,-12.896716,7.6779695
2482,1.285843,-13.19851,6.0080786
2483,5.0922256,-17.52952,2.0509481
2484,5.0922256,-17.52952,2.0509481
2485,5.0922256,-17.52952,2.0509481
2486,5.0922256,-17.52952,2.0509481
2487,-1.4736797,-17.63241,3.844967
2488,-1.4736797,-17.63241,3.844967
2489,-1.4736797,-17.63241,3.844967
2490,-1.4736797,-17.63241,3.844967
2491,-0.7118647,-14.192728,5.040481
2492,-0.7118647,-13.006785,4.6522455
2493,-1.061815,-11.603096,-0.8739785
2494,-1.061815,-11.603096,-0.8739785
2495,-2.7481568,-12.621243,-4.5248275
2496,-10.277173,-21.000608,2.1634107
2497,-10.277173,-21.000608,2.1634107
2498,-10.277173,-21.000608,2.1634107
2499,-10.277173,-21.000608,2.1634107
2500,-10.277173,-21.000608,2.1634107
2501,-7.268498,-17.92972,2.352743
2502,-5.9007006,-14.676377,-0.0020937198
2503,-5.9007006,-14.676377,-0.0020937198
2504,-7.3307114,-13.751851,-0.98674023
2505,-6.9595246,-12.35534,-2.9796624
2506,1.3842479,-6.8407807,-1.3555341
2507,1.3842479,-6.8407807,-1.3555341
2508,1.3842479,-6.8407807,-1.3555341
2509,1.3842479,-6.8407807,-1.3555341
2510,5.537889,-6.0454664,-1.6860427
2511,5.537889,-6.0454664,-1.6860427
2512,5.6554365,-5.968896,-2.1460629
2513,4.150949,-4.8215375,-1.899303
2514,4.0887356,-4.4811587,-1.9758734
2515,2.716153,-3.0296125,-3.2240293
2516,1.6115661,-1.5948163,-4.234997
2517,-0.46031925,1.1123635,-5.8064833
2518,-1.7802601,2.5782664,-5.197809
2519,-3.2368908,4.0588255,-2.2947168
2520,-3.2368908,4.0588255,-2.2947168
2521,-3.2368908,4.0588255,-2.2947168
2522,-0.46031925,2.7221348,-1.4946169
2523,-0.46031925,2.7221348,-1.4946169
2524,2.524428,-3.3146574,6.9065833
2525,2.524428,-3.3146574,6.9065833
2526,-7.2469625,-14.971293,21.825832
2527,-7.2469625,-14.971293,21.825832
2528,-8.72483,-16.681562,23.239094
2529,-8.72483,-16.681562,23.239094
2530,-8.72483,-16.681562,23.239094
2531,-8.72483,-16.681562,23.239094
2532,-7.3522468,-14.458631,12.028121
2533,-25.666014,-0.57906306,21.631716
2534,-25.666014,-0.57906306,21.631716
2535,-25.666014,-0.57906306,21.631716
2536,-1.5335002,-13.670495,-14.576179
2537,-1.5335002,-13.670495,-14.576179
2538,-1.5335002,-13.670495,-14.576179
2539,-1.5335002,-13.670495,-14.576179
2540,-10.63161,-13.1027975,9.081659
2541,-10.63161,-13.1027975,9.081659
2542,1.9232312,-9.638887,-2.8839495
2543,1.9232312,-9.638887,-2.8839495
2544,1.9232312,-9.638887,-2.8839495
2545,1.9232312,-9.638887,-2.8839495
2546,0.5697909,-13.579268,2.02702
2547,0.5697909,-13.579268,2.02702
2548,0.5697909,-13.579268,2.02702
2549,0.5697909,-13.579268,2.02702
2550,0.92183495,-13.416556,2.7000012
2551,0.69182485,-12.146865,3.342175
2552,0.907478,-7.643274,0.44117668
2553,0.907478,-7.643274,0.44117668
2554,0.907478,-7.643274,0.44117668
2555,0.907478,-7.643274,0.44117668
2556,0.93619186,-5.877969,0.8003992
2557,0.93619186,-5.877969,0.8003992
2558,0.63918275,-4.0788655,-1.1422737
2559,0.63918275,-4.0788655,-1.1422737
2560,0.63918275,-4.0788655,-1.1422737
2561,0.03798606,-3.9852462,-3.0155547
2562,-0.8700901,-4.3447676,-2.9892337
2563,-2.6620152,-4.867001,-2.169991
2564,-3.4692938,-5.0249276,-1.192523
2565,-6.0155563,-6.824031,2.759822
2566,-5.158028,-15.735202,3.6655052
2567,-5.158028,-15.735202,3.6655052
2568,-5.158028,-15.735202,3.6655052
2569,-5.158028,-15.735202,3.6655052
2570,3.690929,-13.251153,-5.6985073
2571,3.690929,-13.251153,-5.6985073
2572,4.328317,-12.134901,4.451248
2573,4.328317,-12.134901,4.451248
2574,4.328317,-12.134901,4.451248
2575,3.3317065,-13.450056,9.515358
2576,3.4489548,-14.173586,1.4904294
2577,4.462315,-14.518452,-3.525824
2578,4.9055853,-15.70888,-0.91465646
2579,-1.9839491,-17.84567,4.6618166
2580,-1.9839491,-17.84567,4.6618166
2581,-1.9839491,-17.84567,4.6618166
2582,-1.5888343,-18.171394,2.6928227
2583,0.84047896,-13.243975,5.4933224
2584,0.84047896,-13.243975,5.4933224
2585,0.84047896,-13.243975,5.4933224
2586,0.84047896,-13.243975,5.4933224
2587,-1.5741782,-11.152647,0.5249255
2588,-2.0485554,-10.889137,-1.4751751
2589,-2.7649066,-11.734701,-4.1632123
2590,-3.2656047,-13.165011,-4.107878
2591,-5.6467624,-16.128223,-2.836093
2592,-9.225528,-20.727528,-0.79501534
2593,-9.225528,-20.727528,-0.79501534
2594,-7.824231,-19.278374,1.6220347
2595,-7.359425,-18.727427,1.5957136
2596,-5.881558,-16.530516,1.0591232
2597,-5.38086,-14.609379,0.12502499
2598,-5.272884,-14.14218,-0.5985048
2599,-6.3508506,-12.697812,-2.7065816
2600,-2.1011975,-7.9737825,-1.7434704
2601,-2.1011975,-7.9737825,-1.7434704
2602,-2.1011975,-7.9737825,-1.7434704
2603,-0.8892327,-6.0550375,-0.37088752
2604,2.2968106,-5.777171,-1.817947
2605,2.2968106,-5.777171,-1.817947
2606,2.9195428,-6.0287166,-1.7291135
2607,0.21505493,-2.8235307,-3.2910285
2608,0.21505493,-2.8235307,-3.2910285
2609,0.21505493,-2.8235307,-3.2910285
2610,0.21505493,-2.8235307,-3.2910285
2611,-1.6893328,-0.3059822,-3.9332023
2612,-1.6893328,-0.3059822,-3.9332023
2613,-3.138486,2.6285157,-2.8743782
2614,-3.138486,2.6285157,-2.8743782
2615,-3.0595229,2.8298118,-2.9676983
2616,1.2403795,-1.8559331,8.830113
2617,1.2403795,-1.8559331,8.830113
2618,1.2403795,-1.8559331,8.830113
2619,1.2403795,-1.8559331,8.830113
2620,1.2403795,-1.8559331,8.830113
2621,1.5828521,-10.331012,20.857935
2622,-1.7706888,-13.243975,20.52982
2623,-8.149954,-18.070896,19.003798
2624,-4.1518464,-16.39891,12.792329
2625,-4.1518464,-16.39891,12.792329
2626,-7.8720875,-14.041681,16.876577
2627,-0.03888337,-8.639884,10.4159565
2628,-0.03888337,-8.639884,10.4159565
2629,4.289733,4.0516467,-21.017656
2630,-2.5612175,10.296615,-22.838295
2631,-24.877878,4.523332,-0.6750751
2632,-21.921844,-6.594021,30.372995
2633,-5.9030933,-23.49662,28.144978
2634,-2.7481568,-14.997614,-3.1929228
2635,-2.7481568,-14.997614,-3.1929228
2636,-2.7481568,-14.997614,-3.1929228
2637,-8.396714,-11.425728,15.489638
2638,-7.2206416,-11.29173,6.9065833
2639,-0.06999006,-6.6131635,-5.2049875
2640,-0.06999006,-6.6131635,-5.2049875
2641,-0.06999006,-6.6131635,-5.2049875
2642,0.03798606,-13.828422,-0.7830512
2643,0.03798606,-13.828422,-0.7830512
2644,0.03798606,-13.828422,-0.7830512
2645,0.03798606,-13.828422,-0.7830512
2646,0.8380861,-11.135898,1.8281165
2647,0.8380861,-11.135898,1.8281165
2648,0.8380861,-11.135898,1.8281165
2649,0.8380861,-11.135898,1.8281165
2650,0.86919284,-8.328518,0.86261255
2651,0.86919284,-8.328518,0.86261255
2652,0.86919284,-8.328518,0.86261255
2653,-0.1369891,-6.1100726,0.41964126
2654,-0.49860442,-5.619245,0.6517451
2655,-1.2699906,-4.8526444,1.3202399
2656,-1.7587247,-4.6968117,0.19202402
2657,-1.7587247,-4.6968117,0.19202402
2658,-2.949453,-6.78096,-2.9533412
2659,-2.949453,-6.78096,-2.9533412
2660,-2.949453,-6.78096,-2.9533412
2661,-2.949453,-6.78096,-2.9533412
2662,-3.2847474,-7.217052,-2.1053848
2663,-4.645366,-11.830713,2.3192434
2664,-4.645366,-11.830713,2.3192434
2665,-4.892126,-15.4358,6.518348
2666,-4.892126,-15.4358,6.518348
2667,-0.7405786,-14.662021,7.1222367
2668,5.0108695,-11.689238,-0.799801
2669,5.0108695,-11.689238,-0.799801
2670,2.7376883,-13.92204,6.2380886
2671,2.7376883,-13.92204,6.2380886
2672,2.7376883,-13.92204,6.2380886
2673,2.7376883,-13.92204,6.2380886
2674,-1.3707882,-16.913965,6.7292156
2675,-1.3707882,-16.913965,6.7292156
2676,-1.3707882,-16.913965,6.7292156
2677,-1.3707882,-16.913965,6.7292156
2678,-1.5382859,-17.18226,6.940083
2679,-0.8246265,-18.89253,4.5158544
2680,0.66071814,-18.799212,3.775575
2681,1.6764714,-10.66152,-2.9748766
2682,1.6764714,-10.66152,-2.9748766
2683,1.6764714,-10.66152,-2.9748766
2684,1.6764714,-10.66152,-2.9748766
2685,-4.269394,-16.303198,-0.7471589
2686,-4.269394,-16.303198,-0.7471589
2687,-4.269394,-16.303198,-0.7471589
2688,-4.269394,-16.303198,-0.7471589
2689,-9.422038,-20.485554,-4.996812
2690,-10.6770735,-21.685852,-4.4913282
2691,-10.008878,-21.381367,0.32362926
2692,-8.607581,-19.996819,2.5875385
2693,-6.41097,-17.160727,1.7922242
2694,-5.428716,-15.582061,0.117547415
2695,-8.643474,-13.488341,-2.4622145
2696,-8.643474,-13.488341,-2.4622145
2697,-5.325825,-10.436595,-2.440679
2698,-3.4740794,-9.188439,-1.8227327
2699,1.259522,-5.769993,-1.2598212
2700,1.259522,-5.769993,-1.2598212
2701,1.259522,-5.769993,-1.2598212
2702,2.4909284,-6.1582284,-1.2502499
2703,2.4909284,-6.1582284,-1.2502499
2704,2.955435,-5.029713,-2.4933212
2705,2.955435,-5.029713,-2.4933212
2706,-0.026919255,-0.80907315,-4.7955155
2707,-0.026919255,-0.80907315,-4.7955155
2708,-0.026919255,-0.80907315,-4.7955155
2709,-0.91555375,1.3085749,-5.9500527
2710,-1.8714864,2.7053852,-5.4349976
2711,-0.4435695,1.8619151,2.1299112
2712,-0.4435695,1.8619151,2.1299112
2713,-0.4435695,1.8619151,2.1299112
2714,-0.4435695,1.8619151,2.1299112
2715,-0.4435695,1.8619151,2.1299112
2716,0.84047896,-5.384449,14.77568
2717,0.84047896,-5.384449,14.77568
2718,-1.5287145,-9.799207,20.414665
2719,-5.162814,-21.168406,13.455739
2720,-5.162814,-21.168406,13.455739
2721,-5.162814,-21.168406,13.455739
2722,-3.3756745,-19.891535,12.871292
2723,-1.8448663,3.9987056,-22.357038
2724,-1.8448663,3.9987056,-22.357038
2725,-1.8448663,3.9987056,-22.357038
2726,-1.8448663,3.9987056,-22.357038
2727,0.102592275,-18.502201,-13.141382
2728,0.102592275,-18.502201,-13.141382
2729,0.102592275,-18.502201,-13.141382
2730,0.102592275,-18.502201,-13.141382
2731,-3.8763726,-16.017855,-12.425031
2732,-3.8763726,-16.017855,-12.425031
2733,-8.93809,-14.992828,6.520741
2734,-7.6803627,-14.930316,0.24466611
2735,-1.006481,-12.760026,-9.028419
2736,3.5090744,-10.735997,-5.5980086
2737,3.5090744,-10.735997,-5.5980086
2738,2.0548365,-13.23201,0.026620151
2739,2.0548365,-13.23201,0.026620151
2740,2.0548365,-13.23201,0.026620151
2741,1.9423738,-13.409378,2.6712873
2742,1.599602,-13.176975,3.342175
2743,-1.320539,-7.626524,1.6914265
2744,-1.320539,-7.626524,1.6914265
2745,-1.320539,-7.626524,1.6914265
2746,-1.320539,-7.626524,1.6914265
2747,-1.7611175,-5.9114685,1.0854442
2748,-2.024627,-5.0249276,1.3250256
2749,-2.9374888,-4.5245285,0.73579293
2750,-2.9374888,-4.5245285,0.73579293
2751,-2.3168504,-4.9196434,-0.1265205
2752,-1.6438692,-5.6096735,-0.25603202
2753,0.17198412,-6.515058,-1.4153546
2754,-0.8365906,-7.8373914,-1.8251255
2755,-0.8365906,-7.8373914,-1.8251255
2756,-1.7922242,-8.352447,-1.9160527
2757,-2.3865414,-8.879466,-0.25124636
2758,-2.623431,-9.29133,0.71665037
2759,-3.8955152,-11.042578,3.1480572
2760,-4.4608197,-12.149258,6.0777693
2761,-4.4608197,-12.149258,6.0777693
2762,-3.3373895,-12.439089,5.32074
2763,3.2285159,-13.095619,0.1896312
2764,1.3698909,-14.034503,5.9267225
2765,1.3698909,-14.034503,5.9267225
2766,1.3698909,-14.034503,5.9267225
2767,1.3698909,-14.034503,5.9267225
2768,-0.5300102,-14.264513,3.3517463
2769,-0.30717862,-13.9986105,-0.8356933
2770,1.0893325,-14.127823,-1.5352948
2771,3.0610185,-15.519848,2.5707889
2772,-0.85094756,-15.033506,3.0185459
2773,-0.85094756,-15.033506,3.0185459
2774,0.24616162,-15.754344,1.4665012
2775,0.24616162,-15.754344,1.4665012
2776,0.4139583,-13.19851,-0.2105684
2777,0.4139583,-13.19851,-0.2105684
2778,0.4139583,-13.19851,-0.2105684
2779,0.4139583,-13.19851,-0.2105684
2780,-0.2760719,-12.71217,-1.6597216
2781,-1.5717853,-13.093226,-3.463611
2782,-2.9542387,-14.312369,-3.4660037
2783,-8.586046,-18.418154,-2.8022945
2784,-8.586046,-18.418154,-2.8022945
2785,-10.229317,-18.451952,1.6603198
2786,-10.229317,-18.451952,1.6603198
2787,-10.229317,-18.451952,1.6603198
2788,-7.958229,-16.851753,1.3561323
2789,-6.1905313,-15.244374,0.32841492
2790,-5.907879,-14.164015,-0.097806625
2791,-6.1642103,-12.036796,-1.3866407
2792,-6.50429,-10.824532,-2.2226331
2793,-0.38135612,-6.409774,-0.37806597
2794,-0.38135612,-6.409774,-0.37806597
2795,-0.38135612,-6.409774,-0.37806597
2796,-0.38135612,-6.409774,-0.37806597
2797,3.702893,-6.2180486,-1.9160527
2798,3.702893,-6.2180486,-1.9160527
2799,3.702893,-6.2180486,-1.9160527
2800,2.8836503,-5.6647086,-2.074278
2801,2.2848465,-5.154439,-1.9184456
2802,1.8726828,-4.3998027,-1.9806589
2803,1.0534402,-2.4595225,-3.336492
2804,0.2222334,-1.6905292,-4.1437707
2805,-1.7347964,-0.13339986,-4.31396
2806,-3.2081769,2.0105693,-3.5617166
2807,-3.2081769,2.0105693,-3.5617166
2808,-3.1624143,2.844169,-2.9270203
2809,0.04516453,-0.3275176,3.6559339
2810,0.04516453,-0.3275176,3.6559339
2811,0.04516453,-0.3275176,3.6559339
2812,0.04516453,-0.3275176,3.6559339
2813,1.4488541,-7.4733834,16.169798
2814,-6.8371916,-17.13919,18.131912
2815,-6.8371916,-17.13919,18.131912
2816,-6.554539,-10.620842,18.63979
2817,-6.554539,-10.620842,18.63979
2818,-6.554539,-10.620842,18.63979
2819,-6.554539,-10.620842,18.63979
2820,-19.004097,3.1603205,-8.369495
2821,-19.004097,3.1603205,-8.369495
2822,-19.004097,3.1603205,-8.369495
2823,-19.004097,3.1603205,-8.369495
2824,-0.65682983,-19.697416,-16.607685
2825,-0.65682983,-19.697416,-16.607685
2826,-0.65682983,-19.697416,-16.607685
2827,-0.65682983,-19.697416,-16.607685
2828,-1.8233309,-9.250652,-9.433105
2829,-1.8233309,-9.250652,-9.433105
2830,-1.8233309,-9.250652,-9.433105
2831,-1.8233309,-9.250652,-9.433105
2832,0.29910284,-8.246863,-10.530214
2833,2.8046873,-7.4156566,-8.52772
2834,0.23419751,-12.055938,-4.1007
2835,0.23419751,-12.055938,-4.1007
2836,0.23419751,-12.055938,-4.1007
2837,0.4019942,-14.233406,0.6086743
2838,1.4273187,-14.7915325,3.4594233
2839,2.3231318,-14.841782,5.026124
2840,-0.47706902,-10.745568,1.6339988
2841,-0.47706902,-10.745568,1.6339988
2842,-0.47706902,-10.745568,1.6339988
2843,-0.9490533,-8.359625,1.6148561
2844,-1.8475581,-5.2166524,0.7501499
2845,-1.8475581,-5.2166524,0.7501499
2846,-2.800799,-3.1998022,0.7573284
2847,-2.800799,-3.1998022,0.7573284
2848,-2.800799,-3.1998022,0.7573284
2849,-1.6654046,-3.8608193,-1.0920244
2850,-1.11685,-4.371089,-2.2704897
2851,0.5072784,-5.875576,-5.0159545
2852,0.58654064,-6.33769,-5.346463
2853,-0.7405786,-7.341479,-3.204887
2854,-4.21406,-14.530416,8.0563345
2855,-4.21406,-14.530416,8.0563345
2856,-4.21406,-14.530416,8.0563345
2857,-4.21406,-14.530416,8.0563345
2858,-0.12981063,-14.793925,5.050052
2859,-0.12981063,-14.793925,5.050052
2860,0.6511469,-14.333905,2.8438697
2861,2.5914268,-12.451053,-1.791626
2862,2.1649063,-12.331411,-0.17706887
2863,0.8138588,-12.992429,3.2413774
2864,0.020937199,-13.117155,4.3743787
2865,0.020937199,-13.117155,4.3743787
2866,1.585245,-16.703098,3.6391842
2867,1.585245,-16.703098,3.6391842
2868,1.585245,-16.703098,3.6391842
2869,1.585245,-16.703098,3.6391842
2870,0.38524446,-16.827526,5.12423
2871,-2.0581267,-17.864815,5.239384
2872,1.7745771,-17.179869,4.4201417
2873,1.7745771,-17.179869,4.4201417
2874,-0.0317049,-10.2927265,-3.0753753
2875,-0.0317049,-10.2927265,-3.0753753
2876,-0.0317049,-10.2927265,-3.0753753
2877,-0.0317049,-10.2927265,-3.0753753
2878,-5.433502,-15.840785,-3.6000016
2879,-5.433502,-15.840785,-3.6000016
2880,-5.433502,-15.840785,-3.6000016
2881,-10.116555,-21.544376,1.820938
2882,-10.116555,-21.544376,1.820938
2883,-10.116555,-21.544376,1.820938
2884,-8.995518,-20.57648,2.7885356
2885,-6.626324,-17.714066,1.8664017
2886,-6.8300133,-14.841782,-1.7458632
2887,-6.8300133,-14.841782,-1.7458632
2888,-1.6630118,-7.9594254,-1.0250254
2889,-1.6630118,-7.9594254,-1.0250254
2890,-1.6630118,-7.9594254,-1.0250254
2891,-1.6630118,-7.9594254,-1.0250254
2892,-1.1096715,-7.3079796,-1.2550355
2893,0.3589234,-6.081359,-1.2020943
2894,1.3914263,-5.8875403,-1.166202
2895,1.5517455,-4.5269213,-2.1939192
2896,1.5517455,-4.5269213,-2.1939192
2897,1.5517455,-4.5269213,-2.1939192
2898,1.5517455,-4.5269213,-2.1939192
2899,0.5626124,-3.24048,-3.1737802
2900,-0.93708915,-0.93589276,-4.3785663
2901,-2.6811578,3.4764721,-3.7797625
2902,-2.6811578,3.4764721,-3.7797625
2903,-2.6811578,3.4764721,-3.7797625
2904,1.6067804,2.7364917,3.979264
2905,1.6067804,2.7364917,3.979264
2906,1.6067804,2.7364917,3.979264
2907,1.6067804,2.7364917,3.979264
2908,-10.53829,-18.863817,14.557633
2909,-10.53829,-18.863817,14.557633
2910,-10.53829,-18.863817,14.557633
2911,-10.53829,-18.863817,14.557633
2912,-10.53829,-18.863817,14.557633
2913,-6.4995046,-20.864218,11.120344
2914,-6.4995046,-20.864218,11.120344
2915,-7.9678,-13.255939,16.938791
2916,0.3924229,-7.8254275,5.823831
2917,1.3169497,-6.172585,0.13459627
2918,-17.643478,5.5965133,-9.814162
2919,-17.643478,5.5965133,-9.814162
2920,1.3121641,-21.661924,-23.535505
2921,1.3121641,-21.661924,-23.535505
2922,1.3121641,-21.661924,-23.535505
2923,1.3121641,-21.661924,-23.535505
2924,-2.3985057,-8.872287,-11.912369
2925,-2.3985057,-8.872287,-11.912369
2926,-2.3985057,-8.872287,-11.912369
2927,-2.3985057,-8.872287,-11.912369
2928,-0.44117668,-12.340982,-2.0575283
2929,-0.44117668,-12.340982,-2.0575283
2930,-0.44117668,-12.340982,-2.0575283
2931,-0.44117668,-12.340982,-2.0575283
2932,-0.44117668,-12.340982,-2.0575283
2933,1.3241283,-15.04547,0.5943173
2934,0.62482584,-10.7431755,2.2519453
2935,0.62482584,-10.7431755,2.2519453
2936,0.62482584,-10.7431755,2.2519453
2937,0.62482584,-10.7431755,2.2519453
2938,-2.1278176,-5.836992,0.29012975
2939,-2.1278176,-5.836992,0.29012975
2940,-2.1278176,-5.836992,0.29012975
2941,-3.0690942,-4.603492,0.81954175
2942,-3.0690942,-4.603492,0.81954175
2943,-3.0690942,-4.603492,0.81954175
2944,-3.0690942,-4.603492,0.81954175
2945,-0.9059825,-7.7536426,-2.1843479
2946,-0.9059825,-7.7536426,-2.1843479
2947,-0.9059825,-7.7536426,-2.1843479
2948,-0.9059825,-7.7536426,-2.1843479
2949,-2.812763,-8.915359,-0.15074782
2950,-2.812763,-8.915359,-0.15074782
2951,-2.812763,-8.915359,-0.15074782
2952,-1.4521443,-12.137294,4.618746
2953,-1.4521443,-12.137294,4.618746
2954,-1.4521443,-12.137294,4.618746
2955,-1.4521443,-12.137294,4.618746
2956,4.098307,-11.382657,0.14177474
2957,4.098307,-11.382657,0.14177474
2958,4.098307,-11.382657,0.14177474
2959,4.098307,-11.382657,0.14177474
2960,2.9219356,-16.84936,-0.3684947
2961,2.9219356,-16.84936,-0.3684947
2962,2.9219356,-16.84936,-0.3684947
2963,2.9219356,-16.84936,-0.3684947
2964,1.4560326,-16.842182,-0.77347994
2965,1.4560326,-16.842182,-0.77347994
2966,-0.77677006,-16.54248,5.5651073
2967,-1.3106686,-16.801205,6.068198
2968,1.544567,-17.405092,2.5396821
2969,2.5339992,-17.8696,2.8773692
2970,3.403491,-16.854145,3.6367912
2971,2.536392,-13.830814,3.5694933
2972,1.4009976,-12.175579,-0.17467605
2973,0.46181476,-11.66531,-2.4789643
2974,-11.134701,-20.365911,-5.47089
2975,-11.134701,-20.365911,-5.47089
2976,-11.134701,-20.365911,-5.47089
2977,-11.134701,-20.365911,-5.47089
2978,-11.158629,-20.382662,-4.872086
2979,-10.152746,-19.805393,-1.3794622
2980,-7.4096746,-17.685352,3.203092
2981,-5.716154,-15.119648,0.6855437
2982,-5.716154,-15.119648,0.6855437
2983,-2.50379,-9.413663,-1.5807585
2984,-2.50379,-9.413663,-1.5807585
2985,-2.50379,-9.413663,-1.5807585
2986,-2.50379,-9.413663,-1.5807585
2987,-2.611467,-8.46491,-0.88354975
2988,-0.42921257,-7.300801,-0.97477615
2989,-0.42921257,-7.300801,-0.97477615
2990,1.6836498,-6.5772715,-2.3832514
2991,2.9820552,-6.2898335,-1.8897316
2992,3.0729825,-5.3629136,-1.9878374
2993,3.0729825,-5.3629136,-1.9878374
2994,-1.7156538,0.00059820566,-3.9786658
2995,-1.7156538,0.00059820566,-3.9786658
2996,-1.7156538,0.00059820566,-3.9786658
2997,-1.7156538,0.00059820566,-3.9786658
2998,-2.3913271,-0.028115666,-3.9403806
2999,-4.9112687,1.9363917,-1.9902302
3000,-4.9112687,1.9363917,-1.9902302
3001,-4.7099724,2.353042,-1.4584254
3002,-3.251248,2.62373,-0.6152545
3003,-1.9959131,2.4514468,0.24227329
3004,0.7325028,-1.8029919,6.4202423
3005,0.7325028,-1.8029919,6.4202423
3006,-5.2872405,-17.134405,20.170298
3007,-5.2872405,-17.134405,20.170298
3008,-5.2872405,-17.134405,20.170298
3009,-6.5904317,-18.870996,18.555742
3010,-6.5904317,-18.870996,18.555742
3011,-6.75105,-16.846968,18.541384
3012,-4.039384,-12.752848,16.723438
3013,0.033200413,-8.7882395,3.3565319
3014,3.9281175,4.317549,-20.308783
3015,-30.579077,-2.184049,12.662817
3016,-30.579077,-2.184049,12.662817
3017,-18.630219,-12.633206,29.76432
3018,0.811466,-26.675486,-2.7305098
3019,1.7578273,-23.695524,-22.009481
3020,-3.6487553,-9.260223,-11.9051895
3021,-3.6487553,-9.260223,-11.9051895
3022,-3.6487553,-9.260223,-11.9051895
3023,-3.6487553,-9.260223,-11.9051895
3024,0.24616162,-8.009974,-14.315062
3025,0.40677986,-7.947461,-12.216855
3026,-2.137389,-12.834502,-1.8705891
3027,-2.137389,-12.834502,-1.8705891
3028,-2.137389,-12.834502,-1.8705891
3029,-2.137389,-12.834502,-1.8705891
3030,2.4861426,-13.438092,2.0724835
3031,2.4861426,-13.438092,2.0724835
3032,2.4861426,-13.438092,2.0724835
3033,2.6321049,-12.324233,1.1835499
3034,2.672783,-10.853246,0.9200403
3035,2.672783,-10.853246,0.9200403
3036,1.87029,-8.848359,0.13938192
3037,1.5182459,-7.5906315,-0.17467605
3038,-1.5287145,-4.447659,1.6914265
3039,-1.5287145,-4.447659,1.6914265
3040,-1.5287145,-4.447659,1.6914265
3041,-1.5287145,-4.447659,1.6914265
3042,-1.6247265,-4.59392,-0.18664017
3043,-1.6007984,-4.9435716,-0.8787641
3044,-1.6749759,-5.8636117,-2.7041886
3045,-2.1828525,-6.105287,-2.3401806
3046,-4.875376,-11.380264,0.7716853
3047,-4.875376,-11.380264,0.7716853
3048,-4.875376,-11.380264,0.7716853
3049,-5.2944193,-12.443874,1.0591232
3050,-2.1131616,-13.821242,6.216553
3051,-2.1131616,-13.821242,6.216553
3052,2.1867409,-12.896716,4.6498528
3053,4.7784667,-12.664313,2.7191439
3054,5.619245,-12.685848,2.6306095
3055,4.447958,-12.7648115,2.82712
3056,1.6597216,-12.9685,2.879762
3057,0.36610186,-12.647563,3.6774693
3058,1.192523,-16.698313,1.5526428
3059,1.192523,-16.698313,1.5526428
3060,1.192523,-16.698313,1.5526428
3061,1.192523,-16.698313,1.5526428
3062,1.192523,-16.698313,1.5526428
3063,0.100199446,-17.917755,3.2246277
3064,0.100199446,-17.917755,3.2246277
3065,1.5134603,-17.70928,2.5851457
3066,3.5162528,-17.828922,4.6115675
3067,1.9280169,-13.447663,2.755036
3068,1.9280169,-13.447663,2.755036
3069,1.681257,-12.345768,-1.4898312
3070,0.80907315,-11.246266,-4.747659
3071,-0.762114,-11.586347,-4.9896336
3072,-7.5104723,-16.839788,-0.8811569
3073,-7.5104723,-16.839788,-0.8811569
3074,-11.884552,-20.835203,-4.5391846
3075,-10.811371,-20.200508,1.3250256
3076,-10.811371,-20.200508,1.3250256
3077,-8.904591,-18.720247,3.423531
3078,-6.7797637,-16.204794,2.446063
3079,-6.899405,-13.471592,-1.6764714
3080,-6.899405,-13.471592,-1.6764714
3081,-1.835295,-7.6480594,-0.26081768
3082,-1.835295,-7.6480594,-0.26081768
3083,-1.835295,-7.6480594,-0.26081768
3084,-1.835295,-7.6480594,-0.26081768
3085,4.246662,-5.942575,-2.2585254
3086,4.246662,-5.942575,-2.2585254
3087,4.246662,-5.942575,-2.2585254
3088,4.246662,-5.942575,-2.2585254
3089,4.2705903,-5.918647,-1.9734805
3090,4.232305,-5.3294144,-1.7051853
3091,3.4657044,-4.9722853,-1.8370895
3092,-0.42203408,0.32183465,-5.727221
3093,-0.42203408,0.32183465,-5.727221
3094,-0.42203408,0.32183465,-5.727221
3095,-1.7443677,1.0522437,-4.4745784
3096,-3.7615173,3.181856,-3.2144582
3097,-3.7615173,3.181856,-3.2144582
3098,-3.7615173,3.181856,-3.2144582
3099,-3.3732817,3.3783665,-2.9365916
3100,-1.5023935,2.8393831,-0.9843474
3101,-0.4244269,1.5481563,1.5550356
3102,-9.589536,-17.04557,16.653746
3103,-9.589536,-17.04557,16.653746
3104,-9.589536,-17.04557,16.653746
3105,-9.589536,-17.04557,16.653746
3106,-9.589536,-17.04557,16.653746
3107,-7.400103,-17.46252,13.86551
3108,-5.7448683,-11.75175,12.289238
3109,-7.9534435,-8.215756,18.268303
3110,-7.2565336,-9.813564,29.093733
3111,-5.4909296,-13.770993,12.914363
3112,-9.659226,-10.50838,-20.263319
3113,-10.5335045,-5.889933,-11.332707
3114,-11.673684,-7.6719875,10.459028
3115,-4.3268213,-7.094719,-4.4817567
3116,-4.3268213,-7.094719,-4.4817567
3117,-4.3268213,-7.094719,-4.4817567
3118,-4.3268213,-7.094719,-4.4817567
3119,-4.345964,-7.1952176,-4.1294136
3120,-1.3947165,-14.836996,-1.6884354
3121,-1.3947165,-14.836996,-1.6884354
3122,-1.3947165,-14.836996,-1.6884354
3123,-1.3947165,-14.836996,-1.6884354
3124,3.9687955,-14.786747,3.3445678
3125,3.9687955,-14.786747,3.3445678
3126,3.9687955,-14.786747,3.3445678
3127,3.9687955,-14.786747,3.3445678
3128,3.961617,-14.38894,3.1169505
3129,2.3518455,-9.492626,1.0160524
3130,2.3518455,-9.492626,1.0160524
3131,-2.268994,-5.3533425,-0.0212363
3132,-2.268994,-5.3533425,-0.0212363
3133,-2.268994,-5.3533425,-0.0212363
3134,-2.268994,-5.3533425,-0.0212363
3135,-3.275176,-5.482555,1.8855443
3136,-3.275176,-5.482555,1.8855443
3137,-2.9327033,-5.5686965,1.7922242
3138,-2.9327033,-5.5686965,1.7922242
3139,-2.7218359,-5.942575,1.590928
3140,-2.02702,-8.318947,-1.7386848
3141,-2.02702,-8.318947,-1.7386848
3142,-2.02702,-8.318947,-1.7386848
3143,-2.5229323,-8.539386,-1.6621144
3144,-3.4908292,-9.305687,-1.4201403
3145,-4.6429734,-10.136894,-0.100199446
3146,-6.489933,-11.833106,3.9601214
3147,-4.788935,-13.061821,3.9481573
3148,-4.788935,-13.061821,3.9481573
3149,-0.23509483,-11.9407835,3.7229328
3150,3.6430724,-10.213763,4.8583274
3151,4.1222353,-10.647163,0.6445666
3152,3.920939,-12.307484,-2.2848465
3153,4.222734,-12.762419,0.6158527
3154,3.3197422,-13.406985,6.4680986
3155,3.8347974,-13.42852,4.106084
3156,3.1136606,-14.700605,-0.85244304
3157,2.169991,-15.711273,-1.3507484
3158,0.06430711,-18.188442,1.9334008
3159,0.69182485,-19.000507,4.482355
3160,0.69182485,-19.000507,4.482355
3161,2.1003,-16.899609,3.100201
3162,2.1577277,-16.971394,3.5216367
3163,0.05712864,-14.029717,3.2006993
3164,0.05712864,-14.029717,3.2006993
3165,-1.8954146,-12.4223385,-3.1426735
3166,-1.8954146,-12.4223385,-3.1426735
3167,-5.1436715,-13.89572,-3.4803605
3168,-5.1436715,-13.89572,-3.4803605
3169,-8.5525465,-17.622839,-1.9232312
3170,-8.5525465,-17.622839,-1.9232312
3171,-10.547861,-18.46631,0.05054838
3172,-10.547861,-18.46631,0.05054838
3173,-6.087341,-14.247764,-0.4764708
3174,-6.087341,-14.247764,-0.4764708
3175,-6.087341,-14.247764,-0.4764708
3176,-5.785546,-13.148261,-1.4970096
3177,-5.785546,-13.148261,-1.4970096
3178,-4.9256253,-11.816357,-2.3377876
3179,-1.1264212,-8.59442,-0.5985048
3180,-1.1264212,-8.59442,-0.5985048
3181,-1.1264212,-8.59442,-0.5985048
3182,0.51206404,-7.2026954,-0.17706887
3183,2.335096,-5.8417773,-1.9591235
3184,2.335096,-5.8417773,-1.9591235
3185,2.335096,-5.8417773,-1.9591235
3186,2.335096,-5.8417773,-1.9591235
3187,1.8080766,-4.3782673,-1.7099708
3188,-2.038984,0.91585284,-5.456533
3189,-2.038984,0.91585284,-5.456533
3190,-2.038984,0.91585284,-5.456533
3191,-2.038984,0.91585284,-5.456533
3192,-2.6473591,1.5002998,-4.8361936
3193,-2.9422746,2.9111679,-2.6682963
3194,-0.9179466,3.67059,0.3379862
3195,-0.9179466,3.67059,0.3379862
3196,-0.9179466,3.67059,0.3379862
3197,-0.9179466,3.67059,0.3379862
3198,1.1542379,0.1468595,7.0692954
3199,-5.5627146,-13.893327,18.57249
3200,-5.5627146,-13.893327,18.57249
3201,-5.5627146,-13.893327,18.57249
3202,-9.153743,-17.239689,16.62264
3203,-7.795517,-19.041185,13.930116
3204,-5.519644,-16.492231,11.405389
3205,-7.2972116,-9.722636,20.237597
3206,-7.2972116,-9.722636,20.237597
3207,-3.4187453,-0.19561325,-14.468501
3208,-3.4187453,-0.19561325,-14.468501
3209,-11.041381,-9.044571,27.86472
3210,-11.041381,-9.044571,27.86472
3211,-8.202596,-11.744272,30.394531
3212,1.1638091,-21.848564,-3.6984065
3213,-7.0600233,-8.697312,-6.367002
3214,-7.0600233,-8.697312,-6.367002
3215,-7.0600233,-8.697312,-6.367002
3216,-7.0600233,-8.697312,-6.367002
3217,-7.0600233,-8.697312,-6.367002
3218,-1.2843475,-7.6743803,-8.695218
3219,-0.036490545,-7.669595,-7.5550385
3220,1.1159526,-15.186647,2.4221346
3221,1.1159526,-15.186647,2.4221346
3222,1.1159526,-15.186647,2.4221346
3223,1.1159526,-15.186647,2.4221346
3224,-0.32392836,-10.089038,1.6052849
3225,-0.32392836,-10.089038,1.6052849
3226,-0.32392836,-10.089038,1.6052849
3227,-0.32392836,-10.089038,1.6052849
3228,-0.16331014,-9.75135,1.5047864
3229,0.21505493,-6.0311093,0.10797612
3230,0.21505493,-6.0311093,0.10797612
3231,0.21505493,-6.0311093,0.10797612
3232,0.21505493,-6.0311093,0.10797612
3233,0.20309082,-5.8537416,0.23748764
3234,0.5937191,-6.1244297,-2.7831519
3235,0.5937191,-6.1244297,-2.7831519
3236,0.5937191,-6.1244297,-2.7831519
3237,0.5937191,-6.1244297,-2.7831519
3238,-2.3407788,-6.81446,-1.8442681
3239,-2.3407788,-6.81446,-1.8442681
3240,-2.7409782,-6.824031,-1.1255239
3241,-4.4464626,-7.6480594,1.3058829
3242,-6.595217,-9.746565,2.7239294
3243,-9.589536,-14.161622,5.217849
3244,-9.589536,-14.161622,5.217849
3245,5.7966127,-12.051152,-1.9184456
3246,5.7966127,-12.051152,-1.9184456
3247,5.7966127,-12.051152,-1.9184456
3248,5.7966127,-12.051152,-1.9184456
3249,5.7966127,-12.051152,-1.9184456
3250,4.3857446,-13.114761,3.6655052
3251,3.5736806,-12.599707,3.531208
3252,3.5736806,-12.599707,3.531208
3253,0.4953143,-15.055042,-2.3808584
3254,0.4953143,-15.055042,-2.3808584
3255,-0.22552353,-15.543776,-1.2191432
3256,-2.9279177,-18.25305,4.1108694
3257,-2.9279177,-18.25305,4.1108694
3258,-2.9279177,-18.25305,4.1108694
3259,-2.012663,-18.303299,3.5336008
3260,2.5172493,-15.800107,5.3159547
3261,2.5172493,-15.800107,5.3159547
3262,3.2623146,-13.395021,3.4546378
3263,0.3804588,-11.837892,-3.4372897
3264,0.3804588,-11.837892,-3.4372897
3265,0.3804588,-11.837892,-3.4372897
3266,-3.4884362,-14.899209,-2.3162522
3267,-11.388639,-21.949362,-2.1795623
3268,-11.388639,-21.949362,-2.1795623
3269,-11.388639,-21.949362,-2.1795623
3270,-11.26182,-21.66671,2.3551357
3271,-8.547761,-18.554844,2.5731816
3272,-7.071987,-16.67917,1.483251
3273,-6.9305115,-12.688241,-2.836093
3274,-6.9305115,-12.688241,-2.836093
3275,-6.9305115,-12.688241,-2.836093
3276,-3.9891346,-10.225728,-2.740081
3277,-3.1169505,-9.111869,-1.6286149
3278,-0.5491528,-6.1534424,-0.4429713
3279,-0.5491528,-6.1534424,-0.4429713
3280,0.35653058,-5.992824,-1.0561321
3281,1.7434704,-5.8707905,-0.83090764
3282,2.1649063,-4.64417,-3.3583267
3283,2.1649063,-4.64417,-3.3583267
3284,2.1649063,-4.64417,-3.3583267
3285,2.1649063,-4.64417,-3.3583267
3286,0.8668,-1.82692,-3.3631122
3287,0.4019942,-0.5383851,-3.8730826
3288,-0.6305088,2.0153549,-5.528617
3289,-1.6271194,2.5998018,-4.821837
3290,-2.0748763,3.385545,-0.45254257
3291,-2.0748763,3.385545,-0.45254257
3292,-2.0748763,3.385545,-0.45254257
3293,-1.753939,3.263511,0.119940236
3294,-0.26650062,2.3147569,2.975475
3295,-0.939482,-7.5954175,17.964115
3296,-0.939482,-7.5954175,17.964115
3297,-0.939482,-7.5954175,17.964115
3298,-7.7330046,-16.051653,17.317455
3299,-7.8816586,-22.471596,14.634503
3300,-7.8816586,-22.471596,14.634503
3301,0.78035927,-4.5388856,-10.149456
3302,0.78035927,-4.5388856,-10.149456
3303,0.78035927,-4.5388856,-10.149456
3304,0.78035927,-4.5388856,-10.149456
3305,-11.589935,-4.8239303,23.624638
3306,-11.589935,-4.8239303,23.624638
3307,-11.589935,-4.8239303,23.624638
3308,-3.2584262,-13.5481615,-14.418252
3309,-3.2584262,-13.5481615,-14.418252
3310,-3.2584262,-13.5481615,-14.418252
3311,-5.553143,-11.890533,-7.320243
3312,0.7516454,-10.4051895,-4.3211384
3313,0.7516454,-10.4051895,-4.3211384
3314,0.7516454,-10.4051895,-4.3211384
3315,0.7516454,-10.4051895,-4.3211384
3316,0.9529416,-10.608878,-4.1294136
3317,1.151845,-11.330015,-3.406183
3318,1.178166,-13.255939,-2.9940193
3319,1.6525432,-14.144573,-1.2382857
3320,2.1098714,-14.43231,2.2088745
3321,2.4020948,-14.056039,3.4211383
3322,1.8655044,-12.807882,3.5623147
3323,0.4019942,-11.5672035,2.4532413
3324,-0.47946185,-9.38495,1.4207385
3325,-0.5371887,-6.0933228,-0.47168517
3326,-0.5371887,-6.0933228,-0.47168517
3327,-0.5371887,-6.0933228,-0.47168517
3328,-0.5371887,-6.0933228,-0.47168517
3329,-0.92273223,-5.7149577,0.7046863
3330,-0.92273223,-5.7149577,0.7046863
3331,-0.92273223,-5.7149577,0.7046863
3332,-0.92273223,-5.7149577,0.7046863
3333,-0.8700901,-5.7412786,0.4004987
3334,-1.483251,-6.1677995,-1.3052847
3335,-3.5243287,-6.5964136,-0.42861435
3336,-3.5243287,-6.5964136,-0.42861435
3337,-4.532903,-6.8838515,0.5560322
3338,-4.4225345,-14.075181,7.2729845
3339,-4.4225345,-14.075181,7.2729845
3340,-4.4225345,-14.075181,7.2729845
3341,-4.4225345,-14.075181,7.2729845
3342,-2.8869405,-13.5170555,7.8430743
3343,4.735396,-10.86521,1.7033906
3344,6.1103716,-10.829317,-0.91226363
3345,4.1629133,-14.226228,8.374879
3346,4.1629133,-14.226228,8.374879
3347,4.1629133,-14.226228,8.374879
3348,4.1629133,-14.226228,8.374879
3349,-1.1718849,-15.771393,-1.4560326
3350,-1.1718849,-15.771393,-1.4560326
3351,-1.9289142,-15.704095,-2.536392
3352,-1.0713863,-17.527126,1.6770695
3353,1.1350952,-20.107187,4.8272204
3354,1.1350952,-20.107187,4.8272204
3355,1.1350952,-20.107187,4.8272204
3356,0.73011,-10.781461,-2.2226331
3357,0.73011,-10.781461,-2.2226331
3358,0.73011,-10.781461,-2.2226331
3359,0.36610186,-10.659127,-2.9557343
3360,0.36610186,-10.659127,-2.9557343
3361,-2.6835506,-11.799606,-4.328317
3362,-3.2368908,-12.412767,-3.4085758
3363,-5.5340004,-14.693426,-1.1757733
3364,-9.747761,-18.830318,-2.7209384
3365,-11.4699955,-20.394625,-3.9116669
3366,-6.219245,-16.41566,2.7215366
3367,-6.219245,-16.41566,2.7215366
3368,-6.219245,-16.41566,2.7215366
3369,-5.8357954,-16.080366,2.3144577
3370,-5.323133,-14.599808,-0.5697909
3371,-5.9581285,-14.417654,-2.1604197
3372,-4.971089,-12.561421,-3.1929228
3373,-4.971089,-12.561421,-3.1929228
3374,0.92662054,-6.131907,-1.3459628
3375,0.92662054,-6.131907,-1.3459628
3376,0.92662054,-6.131907,-1.3459628
3377,0.92662054,-6.131907,-1.3459628
3378,1.7171494,-4.05733,-2.1628125
3379,1.7171494,-4.05733,-2.1628125
3380,1.7171494,-4.05733,-2.1628125
3381,2.1026928,-2.9865417,-2.3712873
3382,0.5024927,0.9206385,-4.634897
3383,0.5024927,0.9206385,-4.634897
3384,0.5024927,0.9206385,-4.634897
3385,0.054735817,1.8595223,-4.7285166
3386,-1.6510476,2.408077,-4.1126637
3387,-2.9108686,3.2682967,-2.8094728
3388,-3.2129626,4.05404,-1.3866407
3389,-2.7146573,4.106682,-0.58893347
3390,-1.9671993,3.6059837,0.46749774
3391,-0.5946164,2.3027928,2.594717
3392,0.57936215,-1.6450655,8.844471
3393,-3.5865421,-13.23201,21.298813
3394,-3.5865421,-13.23201,21.298813
3395,-7.5344005,-16.65285,17.734106
3396,-6.741479,-21.506092,15.628422
3397,-5.0165524,-22.241585,12.372987
3398,-2.6811578,-10.01486,16.14587
3399,-2.6811578,-10.01486,16.14587
3400,-2.6811578,-10.01486,16.14587
3401,0.69900334,-5.8226347,-0.6200402
3402,-3.6176488,-19.81975,3.708576
3403,-3.6176488,-19.81975,3.708576
3404,-3.6176488,-19.81975,3.708576
3405,-3.6176488,-19.81975,3.708576
3406,-3.6870406,-21.532413,-5.494818
3407,-6.070591,-13.581661,-5.4445686
3408,-6.070591,-13.581661,-5.4445686
3409,-4.7075796,-10.129716,-4.9657054
3410,-4.7075796,-10.129716,-4.9657054
3411,-0.9514461,-9.075976,-10.592727
3412,1.4392828,-8.069795,-8.058129
3413,1.6860427,-8.335697,-5.8567324
3414,1.7027924,-9.945468,-3.458825
3415,1.6716857,-11.387443,-2.778366
3416,0.6942177,-14.863317,-2.37368
3417,1.451247,-16.09233,-0.43100718
3418,2.6871397,-15.98914,2.6377878
3419,2.5028925,-15.2324095,3.979264
3420,1.1183455,-13.212868,3.670291
3421,-0.6472585,-8.553742,1.8185452
3422,-0.6472585,-8.553742,1.8185452
3423,-0.8437691,-7.6313095,1.6651055
3424,-1.3923237,-6.179764,0.46031925
3425,-1.7611175,-5.6838512,0.6517451
3426,-1.849951,-4.6585264,1.1739786
3427,-1.8161523,-4.560421,1.0854442
3428,-0.9562318,-5.98086,0.15134603
3429,-0.9562318,-5.98086,0.15134603
3430,-0.9562318,-5.98086,0.15134603
3431,-1.1192428,-7.094719,-1.274178
3432,-1.1192428,-7.094719,-1.274178
3433,-1.1192428,-7.094719,-1.274178
3434,-2.5755744,-7.717451,-0.20817557
3435,-3.802195,-8.515159,0.27337998
3436,-1.6438692,-14.247764,5.3039904
3437,-1.6438692,-14.247764,5.3039904
3438,-1.6438692,-14.247764,5.3039904
3439,-1.6438692,-14.247764,5.3039904
3440,-0.40528435,-13.931612,5.1385865
3441,2.0117657,-13.236795,4.2714877
3442,6.426523,-12.396018,3.164807
3443,6.8075805,-12.546765,2.8989046
3444,6.4289165,-12.309876,0.117547415
3445,6.0936217,-12.10858,-0.07627122
3446,2.9482565,-12.400804,3.696612
3447,1.4273187,-12.726526,2.8725836
3448,1.3576277,-18.763319,2.3479571
3449,1.3576277,-18.763319,2.3479571
3450,1.3576277,-18.763319,2.3479571
3451,1.3576277,-18.763319,2.3479571
3452,-0.1274178,-15.258731,6.257231
3453,-0.1274178,-15.258731,6.257231
3454,-0.1274178,-15.258731,6.257231
3455,-0.1274178,-15.258731,6.257231
3456,-0.8341978,-10.726426,-3.0586255
3457,-0.8341978,-10.726426,-3.0586255
3458,-0.8341978,-10.726426,-3.0586255
3459,-0.92512506,-10.1683,-4.304389
3460,-10.840085,-21.048464,-1.2215359
3461,-10.840085,-21.048464,-1.2215359
3462,-10.840085,-21.048464,-1.2215359
3463,-10.840085,-21.048464,-1.2215359
3464,-10.64836,-21.110678,0.6831509
3465,-10.0830555,-20.61985,1.9357935
3466,-7.103094,-16.810776,2.0413768
3467,-7.103094,-16.810776,2.0413768
3468,-6.5258255,-14.221442,-0.13130614
3469,-3.2297122,-8.884252,-0.8356933
3470,-3.2297122,-8.884252,-0.8356933
3471,-3.2297122,-8.884252,-0.8356933
3472,-3.2297122,-8.884252,-0.8356933
3473,0.4354937,-6.2754765,-1.1255239
3474,0.4354937,-6.2754765,-1.1255239
3475,1.6716857,-6.0550375,-1.6908283
3476,2.7065816,-6.10768,-2.2082763
3477,2.996412,-5.9521465,-1.3363914
3478,2.6679974,-5.185546,-1.2454642
3479,2.6416762,-4.4859443,-1.5041882
3480,1.9471594,-3.2356944,-2.2800608
3481,1.3698909,-2.6078775,-2.469393
3482,-0.29042885,-0.26051855,-4.6707897
3483,-2.408077,2.693122,-3.2216365
3484,-2.408077,2.693122,-3.2216365
3485,-2.7792635,2.949453,-2.2633111
3486,-2.2019951,3.5557344,-1.1279168
3487,-2.2019951,3.5557344,-1.1279168
3488,-0.6999006,3.507878,0.47228336
3489,-3.6870406,-12.726526,17.703
3490,-3.6870406,-12.726526,17.703
3491,-3.6870406,-12.726526,17.703
3492,-3.6870406,-12.726526,17.703
3493,-6.96431,-18.291334,13.1898365
3494,-6.96431,-18.291334,13.1898365
3495,-5.124529,-6.893423,-19.604397
3496,-5.124529,-6.893423,-19.604397
3497,-5.124529,-6.893423,-19.604397
3498,-5.124529,-6.893423,-19.604397
3499,-10.856834,1.9698912,-24.198914
3500,-25.498217,3.3687952,0.58474606
3501,-17.607286,-5.547161,26.774788
3502,2.076372,-18.475882,7.6755767
3503,6.0170517,-20.327627,-7.368099
3504,1.259522,-12.44866,-17.084455
3505,-9.410074,-10.235299,12.720544
3506,-1.4712868,-11.02822,-7.6917286
3507,-1.4712868,-11.02822,-7.6917286
3508,-1.4712868,-11.02822,-7.6917286
3509,0.5407779,-10.4051895,-5.406284
3510,1.3313067,-12.9685,-2.998805
3511,1.3313067,-12.9685,-2.998805
3512,1.3313067,-12.9685,-2.998805
3513,1.3313067,-12.9685,-2.998805
3514,2.6129622,-14.425131,0.46749774
3515,-0.8222337,-10.161121,1.590928
3516,-0.8222337,-10.161121,1.590928
3517,-0.8222337,-10.161121,1.590928
3518,-0.8222337,-10.161121,1.590928
3519,-1.1718849,-7.748857,1.1452647
3520,-1.1718849,-7.748857,1.1452647
3521,-1.4330016,-7.3079796,1.0974083
3522,-2.4798615,-6.287441,0.9729815
3523,-2.9949167,-4.404588,1.1261221
3524,-2.9949167,-4.404588,1.1261221
3525,-2.9949167,-4.404588,1.1261221
3526,-2.9949167,-4.404588,1.1261221
3527,-2.2187448,-5.185546,-0.0738784
3528,-1.9695921,-7.097112,-2.1221347
3529,-1.9695921,-7.097112,-2.1221347
3530,-1.9695921,-7.097112,-2.1221347
3531,-1.9695921,-7.097112,-2.1221347
3532,-3.3206396,-9.128618,0.1274178
3533,-3.3206396,-9.128618,0.1274178
3534,-5.946164,-13.804493,2.0964117
3535,-5.946164,-13.804493,2.0964117
3536,4.272983,-12.036796,-0.6750751
3537,4.272983,-12.036796,-0.6750751
3538,4.272983,-12.036796,-0.6750751
3539,4.272983,-12.036796,-0.6750751
3540,4.2514477,-12.486945,-1.4057833
3541,2.876472,-15.138791,1.7371893
3542,2.876472,-15.138791,1.7371893
3543,2.876472,-15.138791,1.7371893
3544,2.876472,-15.138791,1.7371893
3545,2.3685954,-15.404693,0.3909274
3546,-0.88683987,-18.401403,4.2667017
3547,-0.88683987,-18.401403,4.2667017
3548,-0.88683987,-18.401403,4.2667017
3549,-0.88683987,-18.401403,4.2667017
3550,1.4297116,-19.065113,2.6545377
3551,2.4717858,-18.332012,3.0472596
3552,2.5148566,-16.573887,3.0762727
3553,2.2034905,-14.276477,5.311169
3554,-0.63529444,-11.46162,-1.1733804
3555,-3.8524444,-11.227124,-5.3129635
3556,-3.8524444,-11.227124,-5.3129635
3557,-4.491926,-11.778071,-5.7009
3558,-7.3785677,-15.656239,-2.9150562
3559,-8.501998,-17.175083,-2.7472596
3560,-7.306783,-17.208582,2.2591236
3561,-7.306783,-17.208582,2.2591236
3562,-7.306783,-17.208582,2.2591236
3563,-6.326922,-12.544373,-1.7003996
3564,-6.326922,-12.544373,-1.7003996
3565,-6.326922,-12.544373,-1.7003996
3566,-6.326922,-12.544373,-1.7003996
3567,-2.2666013,-8.867501,-1.5687944
3568,-2.2666013,-8.867501,-1.5687944
3569,-2.2666013,-8.867501,-1.5687944
3570,0.55034924,-6.7929244,-0.8356933
3571,1.2882359,-6.445666,-0.8787641
3572,2.5316064,-5.8636117,-1.5496517
3573,3.077768,-5.5926247,-1.1063814
3574,3.5976088,-5.07069,-1.7410775
3575,3.5976088,-5.07069,-1.7410775
3576,1.8559331,-3.309872,-2.2680967
3577,1.8559331,-3.309872,-2.2680967
3578,0.5985048,-1.9396819,-3.487539
3579,-0.12023934,-1.2975081,-3.9714873
3580,-3.9361932,1.5026926,-4.733302
3581,-3.9361932,1.5026926,-4.733302
3582,-3.2201412,3.2970104,-1.5305092
3583,-3.2201412,3.2970104,-1.5305092
3584,-3.2201412,3.2970104,-1.5305092
3585,-1.4377873,0.73848486,4.0941195
3586,-1.4377873,0.73848486,4.0941195
3587,-4.935197,-16.69592,16.957933
3588,-4.935197,-16.69592,16.957933
3589,-4.935197,-16.69592,16.957933
3590,-4.935197,-16.69592,16.957933
3591,-4.0968113,-18.954744,14.976976
3592,-2.3024936,-19.673489,12.993625
3593,-2.865405,-17.654245,13.225729
3594,-5.658726,-12.228221,14.859728
3595,-2.7003005,-8.455338,13.944473
3596,-18.886549,-2.184049,-1.9184456
3597,-18.886549,-2.184049,-1.9184456
3598,-18.886549,-2.184049,-1.9184456
3599,-18.886549,-2.184049,-1.9184456
3600,-9.7501545,-12.776775,19.300806
3601,-4.9567323,-17.19901,4.729115
3602,-6.259923,-7.5475607,-4.6396832
3603,-6.259923,-7.5475607,-4.6396832
3604,-6.259923,-7.5475607,-4.6396832
3605,-6.259923,-7.5475607,-4.6396832
3606,-6.259923,-7.5475607,-4.6396832
3607,0.3493521,-8.529515,-6.1010995
3608,0.3493521,-8.529515,-6.1010995
3609,0.3493521,-8.529515,-6.1010995
3610,0.5455636,-13.236795,-2.9222345
3611,0.5455636,-13.236795,-2.9222345
3612,1.7530417,-16.576279,0.119940236
3613,2.2058833,-16.894823,1.6052849
3614,3.324528,-16.367804,3.8665023
3615,3.5569308,-15.6873455,3.3155549
3616,2.1074786,-11.404193,1.6387844
3617,2.1074786,-11.404193,1.6387844
3618,-2.582753,-5.341378,0.6999006
3619,-2.582753,-5.341378,0.6999006
3620,-2.582753,-5.341378,0.6999006
3621,-2.582753,-5.341378,0.6999006
3622,-2.9877381,-5.0081778,1.2125629
3623,-2.4655046,-5.2238307,0.29012975
3624,-2.4655046,-5.2238307,0.29012975
3625,-2.4655046,-5.2238307,0.29012975
3626,-1.7371893,-7.6743803,-1.966302
3627,-1.7371893,-7.6743803,-1.966302
3628,-1.7371893,-7.6743803,-1.966302
3629,-2.5803602,-8.328518,-0.52193445
3630,-4.147061,-9.272188,2.8079774
3631,-6.0634127,-12.911073,2.3790638
3632,-6.0634127,-12.911073,2.3790638
3633,-6.0634127,-12.911073,2.3790638
3634,-6.0634127,-12.911073,2.3790638
3635,-2.295315,-12.853645,3.8907297
3636,4.84068,-12.053545,3.289234
3637,8.04108,-11.569596,2.755036
3638,8.417352,-11.454442,2.3623142
3639,5.959624,-11.569596,1.1356934
3640,4.098307,-11.047363,1.3202399
3641,3.3005998,-11.289337,3.7707894
3642,1.8726828,-12.197114,2.376671
3643,1.0797613,-13.636995,-0.41665024
3644,-0.055633128,-16.26222,-0.718445
3645,0.06669993,-17.500805,1.1524432
3646,0.9553344,-19.134506,3.9577286
3647,0.9553344,-19.134506,3.9577286
3648,0.90508515,-17.59652,1.4446666
3649,0.65353966,-17.18944,3.2820554
3650,-0.10109676,-17.79303,6.8105717
3651,-0.94666046,-14.12543,1.5406786
3652,-0.94666046,-14.12543,1.5406786
3653,-0.8389834,-12.427124,-5.092525
3654,-5.4143596,-14.156537,-0.73519474
3655,-5.4143596,-14.156537,-0.73519474
3656,-5.4143596,-14.156537,-0.73519474
3657,-11.879766,-19.865213,-2.3377876
3658,-11.879766,-19.865213,-2.3377876
3659,-7.769196,-16.832312,1.7491534
3660,-7.769196,-16.832312,1.7491534
3661,-7.769196,-16.832312,1.7491534
3662,-5.519644,-14.293227,0.65653074
3663,-5.042874,-13.294224,-0.15792629
3664,-2.1828525,-7.92114,-1.2287145
3665,-2.1828525,-7.92114,-1.2287145
3666,-2.1828525,-7.92114,-1.2287145
3667,-2.1828525,-7.92114,-1.2287145
3668,-1.5717853,-7.4563346,-1.1422737
3669,-0.898804,-7.1545396,-0.95802635
3670,2.3781667,-6.6275206,-2.141277
3671,2.3781667,-6.6275206,-2.141277
3672,2.3781667,-6.6275206,-2.141277
3673,2.6368906,-6.009574,-1.8466609
3674,2.6129622,-5.5591254,-1.884946
3675,1.7530417,-2.7158537,-3.4947174
3676,1.7530417,-2.7158537,-3.4947174
3677,0.30867413,-0.84735835,-4.1437707
3678,0.30867413,-0.84735835,-4.1437707
3679,-2.324029,2.108675,-2.6276183
3680,-2.324029,2.108675,-2.6276183
3681,-0.2641078,2.6811578,0.6735796
3682,-0.2641078,2.6811578,0.6735796
3683,-0.2641078,2.6811578,0.6735796
3684,-0.2641078,2.6811578,0.6735796
3685,0.2653042,1.2296118,4.125226
3686,1.8846469,-4.4572306,16.232311
3687,-8.892626,-17.81935,17.65275
3688,-8.892626,-17.81935,17.65275
3689,-8.892626,-17.81935,17.65275
3690,-5.3976097,-18.88296,15.106189
3691,-5.378467,-17.72603,17.327026
3692,-7.4455667,-13.176975,21.725035
3693,-8.068598,7.752446,-25.415964
3694,-8.068598,7.752446,-25.415964
3695,-8.068598,7.752446,-25.415964
3696,-28.732117,4.351049,7.9247293
3697,-1.6438692,-10.7024975,-6.261419
3698,-1.6438692,-10.7024975,-6.261419
3699,-1.6438692,-10.7024975,-6.261419
3700,-1.6438692,-10.7024975,-6.261419
3701,-1.8858434,-8.936893,-11.251351
3702,-1.8858434,-8.936893,-11.251351
3703,-1.8858434,-8.936893,-11.251351
3704,-1.8858434,-8.936893,-11.251351
3705,-1.224527,-12.398411,-1.777269
3706,-1.224527,-12.398411,-1.777269
3707,-1.224527,-12.398411,-1.777269
3708,-1.224527,-12.398411,-1.777269
3709,-0.014955142,-14.4490595,0.24705894
3710,-0.014955142,-14.4490595,0.24705894
3711,-0.9562318,-10.316655,1.4712868
3712,-0.9562318,-10.316655,1.4712868
3713,-0.9562318,-10.316655,1.4712868
3714,-0.9562318,-10.316655,1.4712868
3715,-0.6999006,-7.6863446,0.017048862
3716,-0.6999006,-7.6863446,0.017048862
3717,-0.6999006,-7.6863446,0.017048862
3718,-0.6999006,-7.6863446,0.017048862
3719,-0.90119684,-6.7618175,1.1691929
3720,-0.75972116,-5.5543394,1.4736797
3721,-0.75972116,-5.5543394,1.4736797
3722,-0.75972116,-5.5543394,1.4736797
3723,-0.06520442,-5.6240306,-1.5089738
3724,-0.06520442,-5.6240306,-1.5089738
3725,-2.0964117,-6.0454664,-3.3990045
3726,-2.0964117,-6.0454664,-3.3990045
3727,-4.3387856,-8.04108,-0.70169526
3728,-4.3387856,-8.04108,-0.70169526
3729,-4.930411,-9.157332,0.41724846
3730,-6.667301,-12.736097,2.934797
3731,3.4202409,-10.985149,3.313162
3732,3.4202409,-10.985149,3.313162
3733,3.4202409,-10.985149,3.313162
3734,3.4202409,-10.985149,3.313162
3735,4.6779685,-11.581561,-4.074379
3736,4.5675993,-12.774383,-5.7658052
3737,2.4598217,-14.55195,-0.04755735
3738,2.4598217,-14.55195,-0.04755735
3739,2.4598217,-14.55195,-0.04755735
3740,2.4598217,-14.55195,-0.04755735
3741,1.6307086,-15.040685,-3.0227332
3742,0.042771704,-17.57259,5.536393
3743,0.042771704,-17.57259,5.536393
3744,-1.7252251,-19.196718,7.2466636
3745,0.0738784,-19.553848,5.052445
3746,3.1950164,-12.973287,4.2738805
3747,3.1950164,-12.973287,4.2738805
3748,3.1950164,-12.973287,4.2738805
3749,1.0438689,-9.9909315,-5.4206405
3750,1.0438689,-9.9909315,-5.4206405
3751,1.0438689,-9.9909315,-5.4206405
3752,-9.077172,-18.023039,-1.3794622
3753,-9.077172,-18.023039,-1.3794622
3754,-9.077172,-18.023039,-1.3794622
3755,-11.719148,-20.713171,-2.7999015
3756,-11.719148,-20.713171,-2.7999015
3757,-6.736693,-17.12962,2.4867408
3758,-6.736693,-17.12962,2.4867408
3759,-5.747261,-15.212968,-0.14087744
3760,-5.747261,-15.212968,-0.14087744
3761,-1.1216356,-8.723633,-0.907478
3762,-1.1216356,-8.723633,-0.907478
3763,-1.1216356,-8.723633,-0.907478
3764,-1.1216356,-8.723633,-0.907478
3765,-1.1216356,-8.723633,-0.907478
3766,3.3939197,-6.5677,-1.4153546
3767,3.3939197,-6.5677,-1.4153546
3768,3.3939197,-6.5677,-1.4153546
3769,3.3939197,-6.5677,-1.4153546
3770,3.525824,-6.213263,-1.7533408
3771,1.0797613,-1.599602,-3.9427736
3772,1.0797613,-1.599602,-3.9427736
3773,1.0797613,-1.599602,-3.9427736
3774,1.0797613,-1.599602,-3.9427736
3775,-4.769793,4.430012,-2.9533412
3776,-4.769793,4.430012,-2.9533412
3777,-4.769793,4.430012,-2.9533412
3778,-4.769793,4.430012,-2.9533412
3779,-2.774478,3.874279,-2.5941188
3780,-2.774478,3.874279,-2.5941188
3781,-0.7190432,-0.4758726,1.2293127
3782,-0.7190432,-0.4758726,1.2293127
3783,-0.7190432,-0.4758726,1.2293127
3784,0.663111,-12.362518,17.76282
3785,-3.737589,-18.161823,22.345673
3786,-7.4479594,-22.897818,18.39303
3787,-7.4479594,-22.897818,18.39303
3788,-2.568396,-18.89253,13.245171
3789,-3.6846478,-10.04836,11.275878
3790,-3.6846478,-10.04836,11.275878
3791,-0.97537434,-6.131907,9.84826
3792,1.911267,-2.5265217,-0.5458627
3793,1.911267,-2.5265217,-0.5458627
3794,-10.684551,-15.977176,21.756142
3795,-10.684551,-15.977176,21.756142
3796,-10.684551,-15.977176,21.756142
3797,-10.684551,-15.977176,21.756142
3798,-0.8748758,-25.446772,-4.845765
3799,-5.641977,-15.349658,3.7971103
3800,-5.641977,-15.349658,3.7971103
3801,-5.641977,-15.349658,3.7971103
3802,-8.303393,-11.447264,11.10838
